session,Period,Subject,matching_group,rand,r,Valuation,reported_valuation,sum_reported_valuations,GroupDecisionRule,GroupDecisionVote,GroupDecisionVote_XY,vote,VotesInFavour,transfer,reports_others_3_3,reports_others_3_1,reports_others_3_minus_1,reports_others_3_minus_3,reports_others_1_1,reports_others_1_minus_1,reports_others_1_minus_3,reports_others_minus_1_minus_1,reports_others_minus_1_minus_3,reports_others_minus_3_minus_3,TimeOKTestQuestionsOK,positive,TimeOKStageONEOK,TimeWertschaetbenStageTWOAGVOK,TimeStimmeAbgebenStageTWOK2OK,TimeWEITERStageTWOStatusQuoOK,TimeZumMuenzwuImplementationOK,Draw_random_provision,ReportsVector1,ReportsVector2,provision,payoff,earnings,TimeOKOUTPUTRESULTSOK,TimeOKEndOfTrialRoundsOK,independent_groups,group_formation,i,random_number,rank,TimeWEITERWAITNGAFTERROUND12OK,NumberRank,ValuationVector1,ValuationVector2,ValuationVector3,snr1,snr2,snr3,x,y,srnr1,srnr2,SelectedPeriod,TimeOKProfitInfoOK,Age,Gender,TimeOKQuestionaire1OK,Orientation,Party,TimeOKQuestionaire2OK,risk_self,risk_others,TimeOKQuestionaire3OK,reports_others_7_7,reports_others_7_1,reports_others_7_minus_1,reports_others_7_minus_3,reports_others_3_minus_7,reports_others_1_minus_7,reports_others_minus_1_minus_7,reports_others_minus_7_minus_7,reports_others_7_minus_2,reports_others_minus_1_minus_2,reports_others_minus_2_minus_2,reports_others_minus_2_minus_3,Study_Subject,Session_number,treatment_distribution,maxsession,maxsubject,Rule_1,Rule_2,identifier,SurplusGroup,EfficientChoice,HypotheticalResultAGV,HypotheticalResultSM,HypotheticalResultSQ,HypotheticalResultRAND,ChoiceResultSubject,BinaryChoice,dummy_valuation_negative,truth_telling,truth_telling_sign,never_misreports_sign,block,session_match,ad_interim_round,ex_ante_round,valuation_positive,valuation_negative,Value_factor,Rule_Vote,chose_AGV,chose_SM,chose_NSQ,chose_RAND,treatment_number,efficient,efficient_mech_choice,ex_ante_efficient,GK_prefAGV,TaxTheWinner,absVal,Veto,comparison_order_inverted,input_text,explanation_mechanism,explanation_phase_2
141210_1516,1,1,1,0.81072801,0.053471379,-3,-10,9,SM,SM,2,0,0,0.0,1.0,-1.0,-1.0,-1.0,-1.0,-1.0,-1.0,-1,-1.0,-1.0,,0,25,30.0,0.0,0.0,0.0,1,3,3,1,-3.0,9.0,19,,2,1,2,0.10578297,1,0.0,1,-3,1,3,1,3,4,4,4,3,4,0.0,0.0,64,male,,3,Die Linke,,5,5,,,,,,,,,,,,,,,1,symmetric,9,21,SM,AGV,101,1,1,1,1,0,0.5,1.0,AGV vs. SM,negative,0.0,0.0,0,1,1_1,0,1,0,1,Value -3,1,1.0,0.0,,,symmetric,1,1.0,0,,,3,,1,"[{""role"": ""user"", ""content"": ""You are part of a group with 3 members (you and two randomly selected other participants). Each group has the possibility to conduct a project, call project A. If you do not conduct the project each group member receives a payoff of 0 euro for the project. If your group conducts project A, then each group member receives his or her private valuation for the project as payment. The private valuation of project A can be different for each member of your group. If your group decides not to conduct project A, all group members receive a payoff of zero. The individual participants can not identify the other group members. Thus, you will not know which other participants are in your group. The decision has two parts. In the first part, each group picks a decision rule to decide on implementing project A or not. In the second part, your group applies the chosen rule to decide on project A. You will be informed about your private valuation for project A after part one. We will now explain to you the two different parts of each round as well as the possible decision rules in detail. \n\nIn part one you have the choice between two different decision rules, which will be used to determine whether project A is implemented or not, in part two. Each of the three group members suggests one of the two available rules for part two of this round. A computer randomly picks one of these suggestions as group rule. This decision rule determines how in part 2 the question whether project A is implemented or not is resolved. Each group member has the same chance for his or her suggestion to be selected. Please note that the decision rule is important, because dependent on the decision rule the implementation of project A is easier or more difficult. The different rules are explained below.\n\nIn part 2 the selected decision rule is used to determine whether project A is implemented or not. The group decision arises directly from the decisions of all group members in part 2. The decision is announced and each participants is informed about his or her payment.\n\nIn case project A is implemented all group members receive a payment depended on their project valuations. This means, if your valuation for project A is positive, you benefit from the implementation of project A, and when your valuation for project A is negative, then you have to pay if the project is implemented. You learn your valuation after part 1. Therefore you do not know your valuation when you decide between the different decision rules in part 1, but you know your valuation in part 2 when you decide about the implementation of project A according to the selected decision rule. If your group does not implement project A, each group member receives 0 euro, meaning you neither gain nor lose anything, independently of your valuation for project A\n\n\n\n the valuation of each group member can be -3 euro, -1 euro, +1 eurp, +3 euro. All values are equally likely \n Rule 1 = Simple majority vote (SM): At least two group members have to vote for the implementation of project A. In part II all group members vote either for or against the implementation of project A. At least 2 group members have to vote for the implementation, otherwise project A is not implemented.\n\n Rule 2 = The theoretical optimal Arrow-d'Aspremont-Gerard-Varet (AGV): Whether project A is implemented or not depends on the stated valuations of all group members. With this decision rule in part 2 each group member states his or her valuation for the project. If the sum of all statements is larger than 0, then project A is implemented. If the sum is smaller, the project is not implemented. Each participant has to state a possible valuation. He or she can state his or her true valuation, but also any other possible valuation. The calculation of the sum only depends on the stated valuations true valuations are not taken into account. \n\nAdditionally to the payments from an implementation of project A there are transfer payments between the group members with this decision rule. The height of transfer payments depends on the stated valuation and the stated valuations of the other group members. Below in the table you can see which transfers you receive / pay depended on the stated valuations, with the stated valuations of the others in the top row, and your stated valuations in the first column.\n\nPlease note: A transfer payment is independent of your true valuation and the implementation of project A. You can also receive or pay a transfer if project A is not implemented.\n\nTransfers are chosen such that your expected payoff is maximized if you state your true valuation and also the other group members state their true valuation. The table states the transfers for all possible combinations. The first column contains your statement and the respective columns to the right list the transfers dependent on the statements of the other group members. However, you do not know the valuations or stated valuations of the other members. \n\n;3,3;1,3;-1,3;-1,1;-1,-1;3,-3;1,-3;-1,-3;1,1;-3,-3\n3;0;-0.125;-0.125;-0.25;-0.25;0;-0.125;-0.125;-0.25;0\n1;0.25;0.125;0.125;0;0;0.25;0.125;0.125;0;0.25\n-1;0.25;0.125;0.125;0;0;0.25;0.125;0.125;0;0.25\n-3;0;-0.125;-0.125;-0.25;-0.25;0;-0.125;-0.125;-0.25;0 Based on this explanation which decision rule would you choose? \n\nLet\u00e2\u20ac\u2122s think step by step before answering \n\nConclude with: \""chosen_rule={abbreviation of chosen rule}\""\n\n""}, {""role"": ""system"", ""content"": ""First, let's analyze the two decision rules:\n\n1. Simple majority vote (SM): This rule requires at least two group members to vote for the implementation of project A. It is a straightforward and easy rule to follow, as it only requires a majority decision.\n\n2. The theoretical optimal Arrow-d'Aspremont-Gerard-Varet (AGV): This rule takes into account the stated valuations of all group members. The implementation of project A depends on the sum of all stated valuations, disregarding true valuations. This rule involves transfer payments between group members based on their stated valuations.\n\nConsidering the simplicity and fairness of the rules, I would choose rule 1 (Simple majority vote) as it is easier to understand and implement, and it does not involve complex calculations or transfers between group members.\n\nChosen_rule=SM""}]","First, let's analyze the two decision rules:

1. Simple majority vote (SM): This rule requires at least two group members to vote for the implementation of project A. It is a straightforward and easy rule to follow, as it only requires a majority decision.

2. The theoretical optimal Arrow-d'Aspremont-Gerard-Varet (AGV): This rule takes into account the stated valuations of all group members. The implementation of project A depends on the sum of all stated valuations, disregarding true valuations. This rule involves transfer payments between group members based on their stated valuations.

Considering the simplicity and fairness of the rules, I would choose rule 1 (Simple majority vote) as it is easier to understand and implement, and it does not involve complex calculations or transfers between group members.

Chosen_rule=SM","Given that my private valuation is negative (-3 euro) and the decision rule is SM (Simple Majority Vote), where at least two group members have to vote for the implementation of project A, I would vote against the implementation of project A. 

vote=0"
141210_1516,1,2,2,0.80467045,0.43985426,-1,=+3,-5,AGV,AGV,1,-1,0,0.125,-1.0,-1.0,-1.0,-1.0,-1.0,-1.0,-1.0,-1,1.0,-1.0,,0,25,10.0,0.0,,,1,-1,-3,0,0.125,,19,,2,1,2,0.29153389,2,,1,-1,-1,-1,2,5,7,4,7,5,7,,,26,male,,4,Die Linke,,2,6,,,,,,,,,,,,,,,1,symmetric,9,21,SM,AGV,102,-3,0,0,0,0,0.5,0.0,AGV vs. SM,negative,1.0,1.0,1,1,1_1,0,1,0,1,Value -1,0,0.0,1.0,,,symmetric,0,0.0,1,,,1,,1,"[{""role"": ""user"", ""content"": ""You are part of a group with 3 members (you and two randomly selected other participants). Each group has the possibility to conduct a project, call project A. If you do not conduct the project each group member receives a payoff of 0 euro for the project. If your group conducts project A, then each group member receives his or her private valuation for the project as payment. The private valuation of project A can be different for each member of your group. If your group decides not to conduct project A, all group members receive a payoff of zero. The individual participants can not identify the other group members. Thus, you will not know which other participants are in your group. The decision has two parts. In the first part, each group picks a decision rule to decide on implementing project A or not. In the second part, your group applies the chosen rule to decide on project A. You will be informed about your private valuation for project A after part one. We will now explain to you the two different parts of each round as well as the possible decision rules in detail. \n\nIn part one you have the choice between two different decision rules, which will be used to determine whether project A is implemented or not, in part two. Each of the three group members suggests one of the two available rules for part two of this round. A computer randomly picks one of these suggestions as group rule. This decision rule determines how in part 2 the question whether project A is implemented or not is resolved. Each group member has the same chance for his or her suggestion to be selected. Please note that the decision rule is important, because dependent on the decision rule the implementation of project A is easier or more difficult. The different rules are explained below.\n\nIn part 2 the selected decision rule is used to determine whether project A is implemented or not. The group decision arises directly from the decisions of all group members in part 2. The decision is announced and each participants is informed about his or her payment.\n\nIn case project A is implemented all group members receive a payment depended on their project valuations. This means, if your valuation for project A is positive, you benefit from the implementation of project A, and when your valuation for project A is negative, then you have to pay if the project is implemented. You learn your valuation after part 1. Therefore you do not know your valuation when you decide between the different decision rules in part 1, but you know your valuation in part 2 when you decide about the implementation of project A according to the selected decision rule. If your group does not implement project A, each group member receives 0 euro, meaning you neither gain nor lose anything, independently of your valuation for project A\n\n\n\n the valuation of each group member can be -3 euro, -1 euro, +1 eurp, +3 euro. All values are equally likely \n Rule 1 = Simple majority vote (SM): At least two group members have to vote for the implementation of project A. In part II all group members vote either for or against the implementation of project A. At least 2 group members have to vote for the implementation, otherwise project A is not implemented.\n\n Rule 2 = The theoretical optimal Arrow-d'Aspremont-Gerard-Varet (AGV): Whether project A is implemented or not depends on the stated valuations of all group members. With this decision rule in part 2 each group member states his or her valuation for the project. If the sum of all statements is larger than 0, then project A is implemented. If the sum is smaller, the project is not implemented. Each participant has to state a possible valuation. He or she can state his or her true valuation, but also any other possible valuation. The calculation of the sum only depends on the stated valuations true valuations are not taken into account. \n\nAdditionally to the payments from an implementation of project A there are transfer payments between the group members with this decision rule. The height of transfer payments depends on the stated valuation and the stated valuations of the other group members. Below in the table you can see which transfers you receive / pay depended on the stated valuations, with the stated valuations of the others in the top row, and your stated valuations in the first column.\n\nPlease note: A transfer payment is independent of your true valuation and the implementation of project A. You can also receive or pay a transfer if project A is not implemented.\n\nTransfers are chosen such that your expected payoff is maximized if you state your true valuation and also the other group members state their true valuation. The table states the transfers for all possible combinations. The first column contains your statement and the respective columns to the right list the transfers dependent on the statements of the other group members. However, you do not know the valuations or stated valuations of the other members. \n\n;3,3;1,3;-1,3;-1,1;-1,-1;3,-3;1,-3;-1,-3;1,1;-3,-3\n3;0;-0.125;-0.125;-0.25;-0.25;0;-0.125;-0.125;-0.25;0\n1;0.25;0.125;0.125;0;0;0.25;0.125;0.125;0;0.25\n-1;0.25;0.125;0.125;0;0;0.25;0.125;0.125;0;0.25\n-3;0;-0.125;-0.125;-0.25;-0.25;0;-0.125;-0.125;-0.25;0 Based on this explanation which decision rule would you choose? \n\nLet\u00e2\u20ac\u2122s think step by step before answering \n\nConclude with: \""chosen_rule={abbreviation of chosen rule}\""\n\n""}, {""role"": ""system"", ""content"": ""First, let's consider the possible outcomes and payments under each decision rule:\n\n1. Simple majority vote (SM):\n- If at least two group members vote for project A, it will be implemented.\n- If project A is implemented, each group member receives their private valuation for the project.\n- If project A is not implemented, each group member receives 0 euro.\n\n2. Arrow-d'Aspremont-Gerard-Varet (AGV):\n- Project A is implemented if the sum of all stated valuations is larger than 0.\n- Transfer payments between group members depend on the stated valuations, but are independent of true valuations and project implementation.\n- Each group member has the possibility to receive or pay a transfer payment.\n\nConsidering these factors, I would choose the Arrow-d'Aspremont-Gerard-Varet (AGV) decision rule. This decision rule allows for more nuanced decision-making based on the valuations of all group members, potentially leading to higher payoffs through transfer payments. \n\nTherefore, my chosen decision rule would be: chosen_rule=AGV""}]","First, let's consider the possible outcomes and payments under each decision rule:

1. Simple majority vote (SM):
- If at least two group members vote for project A, it will be implemented.
- If project A is implemented, each group member receives their private valuation for the project.
- If project A is not implemented, each group member receives 0 euro.

2. Arrow-d'Aspremont-Gerard-Varet (AGV):
- Project A is implemented if the sum of all stated valuations is larger than 0.
- Transfer payments between group members depend on the stated valuations, but are independent of true valuations and project implementation.
- Each group member has the possibility to receive or pay a transfer payment.

Considering these factors, I would choose the Arrow-d'Aspremont-Gerard-Varet (AGV) decision rule. This decision rule allows for more nuanced decision-making based on the valuations of all group members, potentially leading to higher payoffs through transfer payments. 

Therefore, my chosen decision rule would be: chosen_rule=AGV","Given my private valuation of -1 euro, I should aim to maximize my expected payoff by stating a valuation that could potentially lead to the implementation of the project. Since the sum of stated valuations determines the project implementation, stating a value of +3 euro would give the highest chance of a positive sum. Therefore, my stated valuation would be +3 euro. 

stated_valuation=+3"
141210_1516,1,3,1,0.25368947,0.69347477,1,-10,9,SM,SM,1,1,0,0.0,1.0,-1.0,-1.0,-1.0,-1.0,-1.0,-1.0,-1,-1.0,-1.0,,1,5,18.0,0.0,,,0,3,3,1,1.0,,2,,2,1,2,0.17466381,2,,1,-3,1,3,1,3,4,4,4,1,4,,,19,male,,6,FDP,,3,4,,,,,,,,,,,,,,,1,symmetric,9,21,SM,AGV,103,1,1,1,1,0,0.5,1.0,AGV vs. SM,positive,0.0,1.0,1,1,1_1,0,1,1,0,Value 1,0,0.0,1.0,,,symmetric,0,0.0,0,,,1,,1,"[{""role"": ""user"", ""content"": ""You are part of a group with 3 members (you and two randomly selected other participants). Each group has the possibility to conduct a project, call project A. If you do not conduct the project each group member receives a payoff of 0 euro for the project. If your group conducts project A, then each group member receives his or her private valuation for the project as payment. The private valuation of project A can be different for each member of your group. If your group decides not to conduct project A, all group members receive a payoff of zero. The individual participants can not identify the other group members. Thus, you will not know which other participants are in your group. The decision has two parts. In the first part, each group picks a decision rule to decide on implementing project A or not. In the second part, your group applies the chosen rule to decide on project A. You will be informed about your private valuation for project A after part one. We will now explain to you the two different parts of each round as well as the possible decision rules in detail. \n\nIn part one you have the choice between two different decision rules, which will be used to determine whether project A is implemented or not, in part two. Each of the three group members suggests one of the two available rules for part two of this round. A computer randomly picks one of these suggestions as group rule. This decision rule determines how in part 2 the question whether project A is implemented or not is resolved. Each group member has the same chance for his or her suggestion to be selected. Please note that the decision rule is important, because dependent on the decision rule the implementation of project A is easier or more difficult. The different rules are explained below.\n\nIn part 2 the selected decision rule is used to determine whether project A is implemented or not. The group decision arises directly from the decisions of all group members in part 2. The decision is announced and each participants is informed about his or her payment.\n\nIn case project A is implemented all group members receive a payment depended on their project valuations. This means, if your valuation for project A is positive, you benefit from the implementation of project A, and when your valuation for project A is negative, then you have to pay if the project is implemented. You learn your valuation after part 1. Therefore you do not know your valuation when you decide between the different decision rules in part 1, but you know your valuation in part 2 when you decide about the implementation of project A according to the selected decision rule. If your group does not implement project A, each group member receives 0 euro, meaning you neither gain nor lose anything, independently of your valuation for project A\n\n\n\n the valuation of each group member can be -3 euro, -1 euro, +1 eurp, +3 euro. All values are equally likely \n Rule 1 = Simple majority vote (SM): At least two group members have to vote for the implementation of project A. In part II all group members vote either for or against the implementation of project A. At least 2 group members have to vote for the implementation, otherwise project A is not implemented.\n\n Rule 2 = The theoretical optimal Arrow-d'Aspremont-Gerard-Varet (AGV): Whether project A is implemented or not depends on the stated valuations of all group members. With this decision rule in part 2 each group member states his or her valuation for the project. If the sum of all statements is larger than 0, then project A is implemented. If the sum is smaller, the project is not implemented. Each participant has to state a possible valuation. He or she can state his or her true valuation, but also any other possible valuation. The calculation of the sum only depends on the stated valuations true valuations are not taken into account. \n\nAdditionally to the payments from an implementation of project A there are transfer payments between the group members with this decision rule. The height of transfer payments depends on the stated valuation and the stated valuations of the other group members. Below in the table you can see which transfers you receive / pay depended on the stated valuations, with the stated valuations of the others in the top row, and your stated valuations in the first column.\n\nPlease note: A transfer payment is independent of your true valuation and the implementation of project A. You can also receive or pay a transfer if project A is not implemented.\n\nTransfers are chosen such that your expected payoff is maximized if you state your true valuation and also the other group members state their true valuation. The table states the transfers for all possible combinations. The first column contains your statement and the respective columns to the right list the transfers dependent on the statements of the other group members. However, you do not know the valuations or stated valuations of the other members. \n\n;3,3;1,3;-1,3;-1,1;-1,-1;3,-3;1,-3;-1,-3;1,1;-3,-3\n3;0;-0.125;-0.125;-0.25;-0.25;0;-0.125;-0.125;-0.25;0\n1;0.25;0.125;0.125;0;0;0.25;0.125;0.125;0;0.25\n-1;0.25;0.125;0.125;0;0;0.25;0.125;0.125;0;0.25\n-3;0;-0.125;-0.125;-0.25;-0.25;0;-0.125;-0.125;-0.25;0 Based on this explanation which decision rule would you choose? \n\nLet\u00e2\u20ac\u2122s think step by step before answering \n\nConclude with: \""chosen_rule={abbreviation of chosen rule}\""\n\n""}, {""role"": ""system"", ""content"": ""First, let's consider Rule 1, which requires a simple majority vote for the implementation of project A. With this rule, at least two group members have to vote for the implementation, meaning that if I have a positive valuation for project A, I would need to persuade at least one other group member to also vote for implementation.\n\nNow, let's consider Rule 2, the AGV rule. Under this rule, the decision to implement project A depends on the stated valuations of all group members. This rule involves transfer payments based on the stated valuations, which could potentially complicate the decision-making process.\n\nGiven the simplicity and straightforwardness of Rule 1, I would choose to go with it, as it only requires a simple majority vote for implementation. Therefore, my chosen rule would be:\n\nchosen_rule=SM""}]","First, let's consider Rule 1, which requires a simple majority vote for the implementation of project A. With this rule, at least two group members have to vote for the implementation, meaning that if I have a positive valuation for project A, I would need to persuade at least one other group member to also vote for implementation.

Now, let's consider Rule 2, the AGV rule. Under this rule, the decision to implement project A depends on the stated valuations of all group members. This rule involves transfer payments based on the stated valuations, which could potentially complicate the decision-making process.

Given the simplicity and straightforwardness of Rule 1, I would choose to go with it, as it only requires a simple majority vote for implementation. Therefore, my chosen rule would be:

chosen_rule=SM","Given that my private valuation is positive and +1 euro, and the final decision rule is simple majority (SM), I would vote in favor of implementing project A.

vote=1"
141210_1516,1,4,1,0.089805126,0.79003048,3,-10,9,SM,SM,2,1,0,0.0,1.0,-1.0,-1.0,-1.0,-1.0,-1.0,-1.0,-1,-1.0,-1.0,,1,28,33.0,0.0,,,1,3,3,1,3.0,,12,,2,1,2,0.10601617,3,,1,-3,1,3,1,3,4,4,3,1,3,,,25,female,,8,Nichtwähler,,3,8,,,,,,,,,,,,,,,1,symmetric,9,21,SM,AGV,104,1,1,1,1,0,0.5,1.0,AGV vs. SM,positive,1.0,1.0,1,1,1_1,0,1,1,0,Value 3,1,1.0,0.0,,,symmetric,1,1.0,0,,,3,,1,"[{""role"": ""user"", ""content"": ""You are part of a group with 3 members (you and two randomly selected other participants). Each group has the possibility to conduct a project, call project A. If you do not conduct the project each group member receives a payoff of 0 euro for the project. If your group conducts project A, then each group member receives his or her private valuation for the project as payment. The private valuation of project A can be different for each member of your group. If your group decides not to conduct project A, all group members receive a payoff of zero. The individual participants can not identify the other group members. Thus, you will not know which other participants are in your group. The decision has two parts. In the first part, each group picks a decision rule to decide on implementing project A or not. In the second part, your group applies the chosen rule to decide on project A. You will be informed about your private valuation for project A after part one. We will now explain to you the two different parts of each round as well as the possible decision rules in detail. \n\nIn part one you have the choice between two different decision rules, which will be used to determine whether project A is implemented or not, in part two. Each of the three group members suggests one of the two available rules for part two of this round. A computer randomly picks one of these suggestions as group rule. This decision rule determines how in part 2 the question whether project A is implemented or not is resolved. Each group member has the same chance for his or her suggestion to be selected. Please note that the decision rule is important, because dependent on the decision rule the implementation of project A is easier or more difficult. The different rules are explained below.\n\nIn part 2 the selected decision rule is used to determine whether project A is implemented or not. The group decision arises directly from the decisions of all group members in part 2. The decision is announced and each participants is informed about his or her payment.\n\nIn case project A is implemented all group members receive a payment depended on their project valuations. This means, if your valuation for project A is positive, you benefit from the implementation of project A, and when your valuation for project A is negative, then you have to pay if the project is implemented. You learn your valuation after part 1. Therefore you do not know your valuation when you decide between the different decision rules in part 1, but you know your valuation in part 2 when you decide about the implementation of project A according to the selected decision rule. If your group does not implement project A, each group member receives 0 euro, meaning you neither gain nor lose anything, independently of your valuation for project A\n\n\n\n the valuation of each group member can be -3 euro, -1 euro, +1 eurp, +3 euro. All values are equally likely \n Rule 1 = Simple majority vote (SM): At least two group members have to vote for the implementation of project A. In part II all group members vote either for or against the implementation of project A. At least 2 group members have to vote for the implementation, otherwise project A is not implemented.\n\n Rule 2 = The theoretical optimal Arrow-d'Aspremont-Gerard-Varet (AGV): Whether project A is implemented or not depends on the stated valuations of all group members. With this decision rule in part 2 each group member states his or her valuation for the project. If the sum of all statements is larger than 0, then project A is implemented. If the sum is smaller, the project is not implemented. Each participant has to state a possible valuation. He or she can state his or her true valuation, but also any other possible valuation. The calculation of the sum only depends on the stated valuations true valuations are not taken into account. \n\nAdditionally to the payments from an implementation of project A there are transfer payments between the group members with this decision rule. The height of transfer payments depends on the stated valuation and the stated valuations of the other group members. Below in the table you can see which transfers you receive / pay depended on the stated valuations, with the stated valuations of the others in the top row, and your stated valuations in the first column.\n\nPlease note: A transfer payment is independent of your true valuation and the implementation of project A. You can also receive or pay a transfer if project A is not implemented.\n\nTransfers are chosen such that your expected payoff is maximized if you state your true valuation and also the other group members state their true valuation. The table states the transfers for all possible combinations. The first column contains your statement and the respective columns to the right list the transfers dependent on the statements of the other group members. However, you do not know the valuations or stated valuations of the other members. \n\n;3,3;1,3;-1,3;-1,1;-1,-1;3,-3;1,-3;-1,-3;1,1;-3,-3\n3;0;-0.125;-0.125;-0.25;-0.25;0;-0.125;-0.125;-0.25;0\n1;0.25;0.125;0.125;0;0;0.25;0.125;0.125;0;0.25\n-1;0.25;0.125;0.125;0;0;0.25;0.125;0.125;0;0.25\n-3;0;-0.125;-0.125;-0.25;-0.25;0;-0.125;-0.125;-0.25;0 Based on this explanation which decision rule would you choose? \n\nLet\u00e2\u20ac\u2122s think step by step before answering \n\nConclude with: \""chosen_rule={abbreviation of chosen rule}\""\n\n""}, {""role"": ""system"", ""content"": ""First, let's consider the two decision rules available: Simple majority vote (SM) and the theoretical optimal Arrow-d'Aspremont-Gerard-Varet (AGV).\n\nFor the Simple majority vote rule, at least two group members need to vote for the implementation of project A. This rule is straightforward and only requires a majority decision.\n\nOn the other hand, the AGV rule considers the stated valuations of all group members to determine whether project A is implemented or not. This rule involves potential transfer payments based on the stated valuations of all group members.\n\nConsidering the potential complexity and uncertainty of the AGV rule, as well as the possibility of transfer payments, I would personally lean towards choosing the Simple majority vote (SM) rule. It is simpler and more straightforward, requiring only a majority decision for project implementation.\n\nTherefore, I would choose the Simple majority vote rule.\n\nConclude with: \""chosen_rule=SM\""""}]","First, let's consider the two decision rules available: Simple majority vote (SM) and the theoretical optimal Arrow-d'Aspremont-Gerard-Varet (AGV).

For the Simple majority vote rule, at least two group members need to vote for the implementation of project A. This rule is straightforward and only requires a majority decision.

On the other hand, the AGV rule considers the stated valuations of all group members to determine whether project A is implemented or not. This rule involves potential transfer payments based on the stated valuations of all group members.

Considering the potential complexity and uncertainty of the AGV rule, as well as the possibility of transfer payments, I would personally lean towards choosing the Simple majority vote (SM) rule. It is simpler and more straightforward, requiring only a majority decision for project implementation.

Therefore, I would choose the Simple majority vote rule.

Conclude with: ""chosen_rule=SM""","Based on the Simple Majority (SM) rule, at least two group members have to vote for the implementation of project A for it to be carried out. Since my private valuation for project A is positive, +3 euro, and the decision rule is SM, I would vote in favor of implementing project A.

vote=1"
141210_1516,1,5,2,0.95589727,0.4033722,-1,=-1,-5,AGV,AGV,2,-1,0,0.125,-1.0,-1.0,-1.0,-1.0,-1.0,-1.0,-1.0,-1,1.0,-1.0,,0,20,22.0,0.0,,,1,-1,-3,0,0.125,,16,,2,1,2,0.35741907,1,,1,-1,-1,-1,2,5,7,4,7,2,7,,,26,male,,2,Sonstige,,5,8,,,,,,,,,,,,,,,1,symmetric,9,21,SM,AGV,105,-3,0,0,0,0,0.5,0.0,AGV vs. SM,negative,1.0,1.0,1,1,1_1,0,1,0,1,Value -1,1,1.0,0.0,,,symmetric,1,1.0,1,,,1,,1,"[{""role"": ""user"", ""content"": ""You are part of a group with 3 members (you and two randomly selected other participants). Each group has the possibility to conduct a project, call project A. If you do not conduct the project each group member receives a payoff of 0 euro for the project. If your group conducts project A, then each group member receives his or her private valuation for the project as payment. The private valuation of project A can be different for each member of your group. If your group decides not to conduct project A, all group members receive a payoff of zero. The individual participants can not identify the other group members. Thus, you will not know which other participants are in your group. The decision has two parts. In the first part, each group picks a decision rule to decide on implementing project A or not. In the second part, your group applies the chosen rule to decide on project A. You will be informed about your private valuation for project A after part one. We will now explain to you the two different parts of each round as well as the possible decision rules in detail. \n\nIn part one you have the choice between two different decision rules, which will be used to determine whether project A is implemented or not, in part two. Each of the three group members suggests one of the two available rules for part two of this round. A computer randomly picks one of these suggestions as group rule. This decision rule determines how in part 2 the question whether project A is implemented or not is resolved. Each group member has the same chance for his or her suggestion to be selected. Please note that the decision rule is important, because dependent on the decision rule the implementation of project A is easier or more difficult. The different rules are explained below.\n\nIn part 2 the selected decision rule is used to determine whether project A is implemented or not. The group decision arises directly from the decisions of all group members in part 2. The decision is announced and each participants is informed about his or her payment.\n\nIn case project A is implemented all group members receive a payment depended on their project valuations. This means, if your valuation for project A is positive, you benefit from the implementation of project A, and when your valuation for project A is negative, then you have to pay if the project is implemented. You learn your valuation after part 1. Therefore you do not know your valuation when you decide between the different decision rules in part 1, but you know your valuation in part 2 when you decide about the implementation of project A according to the selected decision rule. If your group does not implement project A, each group member receives 0 euro, meaning you neither gain nor lose anything, independently of your valuation for project A\n\n\n\n the valuation of each group member can be -3 euro, -1 euro, +1 eurp, +3 euro. All values are equally likely \n Rule 1 = Simple majority vote (SM): At least two group members have to vote for the implementation of project A. In part II all group members vote either for or against the implementation of project A. At least 2 group members have to vote for the implementation, otherwise project A is not implemented.\n\n Rule 2 = The theoretical optimal Arrow-d'Aspremont-Gerard-Varet (AGV): Whether project A is implemented or not depends on the stated valuations of all group members. With this decision rule in part 2 each group member states his or her valuation for the project. If the sum of all statements is larger than 0, then project A is implemented. If the sum is smaller, the project is not implemented. Each participant has to state a possible valuation. He or she can state his or her true valuation, but also any other possible valuation. The calculation of the sum only depends on the stated valuations true valuations are not taken into account. \n\nAdditionally to the payments from an implementation of project A there are transfer payments between the group members with this decision rule. The height of transfer payments depends on the stated valuation and the stated valuations of the other group members. Below in the table you can see which transfers you receive / pay depended on the stated valuations, with the stated valuations of the others in the top row, and your stated valuations in the first column.\n\nPlease note: A transfer payment is independent of your true valuation and the implementation of project A. You can also receive or pay a transfer if project A is not implemented.\n\nTransfers are chosen such that your expected payoff is maximized if you state your true valuation and also the other group members state their true valuation. The table states the transfers for all possible combinations. The first column contains your statement and the respective columns to the right list the transfers dependent on the statements of the other group members. However, you do not know the valuations or stated valuations of the other members. \n\n;3,3;1,3;-1,3;-1,1;-1,-1;3,-3;1,-3;-1,-3;1,1;-3,-3\n3;0;-0.125;-0.125;-0.25;-0.25;0;-0.125;-0.125;-0.25;0\n1;0.25;0.125;0.125;0;0;0.25;0.125;0.125;0;0.25\n-1;0.25;0.125;0.125;0;0;0.25;0.125;0.125;0;0.25\n-3;0;-0.125;-0.125;-0.25;-0.25;0;-0.125;-0.125;-0.25;0 Based on this explanation which decision rule would you choose? \n\nLet\u00e2\u20ac\u2122s think step by step before answering \n\nConclude with: \""chosen_rule={abbreviation of chosen rule}\""\n\n""}, {""role"": ""system"", ""content"": ""First, let's consider the decision rules and their implications:\n\nRule 1 (Simple Majority Vote): In this rule, at least two group members have to vote for the implementation of project A. This means that if one member has a positive valuation for the project, but the other two have negative valuations, the project will not be implemented.\n\nRule 2 (AGV): This rule considers the stated valuations of all group members. The decision to implement project A depends on the sum of all stated valuations. Transfer payments are also involved in this rule, depending on the stated valuations of all group members.\n\nConsidering the potential outcomes and transfer payments involved, I would choose Rule 2 (AGV) as it allows for a more nuanced decision-making process that takes into account all group members' valuations and can potentially lead to higher expected payoffs for everyone.\n\nTherefore, I would choose Rule 2:\n\nchosen_rule=AGV""}]","First, let's consider the decision rules and their implications:

Rule 1 (Simple Majority Vote): In this rule, at least two group members have to vote for the implementation of project A. This means that if one member has a positive valuation for the project, but the other two have negative valuations, the project will not be implemented.

Rule 2 (AGV): This rule considers the stated valuations of all group members. The decision to implement project A depends on the sum of all stated valuations. Transfer payments are also involved in this rule, depending on the stated valuations of all group members.

Considering the potential outcomes and transfer payments involved, I would choose Rule 2 (AGV) as it allows for a more nuanced decision-making process that takes into account all group members' valuations and can potentially lead to higher expected payoffs for everyone.

Therefore, I would choose Rule 2:

chosen_rule=AGV","Given that my private valuation is -1 euro, and the optimal strategy for the AGV rule is to state my true valuation, I would state my true valuation of -1 euro.

stated_valuation=-1"
141210_1516,1,6,3,0.6816389,0.97905171,3,=3,7,AGV,SM,1,-1,0,-0.125,-1.0,1.0,-1.0,-1.0,-1.0,-1.0,-1.0,-1,-1.0,-1.0,,1,30,32.0,0.0,,,1,3,1,1,2.875,,14,,2,1,2,0.92243594,2,,1,3,3,-1,6,8,9,4,9,8,9,,,21,male,,2,Die Linke,,3,6,,,,,,,,,,,,,,,1,symmetric,9,21,SM,AGV,106,5,1,1,1,0,0.5,1.0,AGV vs. SM,positive,1.0,1.0,1,1,1_1,0,1,1,0,Value 3,0,0.0,1.0,,,symmetric,0,0.0,0,,,3,,1,"[{""role"": ""user"", ""content"": ""You are part of a group with 3 members (you and two randomly selected other participants). Each group has the possibility to conduct a project, call project A. If you do not conduct the project each group member receives a payoff of 0 euro for the project. If your group conducts project A, then each group member receives his or her private valuation for the project as payment. The private valuation of project A can be different for each member of your group. If your group decides not to conduct project A, all group members receive a payoff of zero. The individual participants can not identify the other group members. Thus, you will not know which other participants are in your group. The decision has two parts. In the first part, each group picks a decision rule to decide on implementing project A or not. In the second part, your group applies the chosen rule to decide on project A. You will be informed about your private valuation for project A after part one. We will now explain to you the two different parts of each round as well as the possible decision rules in detail. \n\nIn part one you have the choice between two different decision rules, which will be used to determine whether project A is implemented or not, in part two. Each of the three group members suggests one of the two available rules for part two of this round. A computer randomly picks one of these suggestions as group rule. This decision rule determines how in part 2 the question whether project A is implemented or not is resolved. Each group member has the same chance for his or her suggestion to be selected. Please note that the decision rule is important, because dependent on the decision rule the implementation of project A is easier or more difficult. The different rules are explained below.\n\nIn part 2 the selected decision rule is used to determine whether project A is implemented or not. The group decision arises directly from the decisions of all group members in part 2. The decision is announced and each participants is informed about his or her payment.\n\nIn case project A is implemented all group members receive a payment depended on their project valuations. This means, if your valuation for project A is positive, you benefit from the implementation of project A, and when your valuation for project A is negative, then you have to pay if the project is implemented. You learn your valuation after part 1. Therefore you do not know your valuation when you decide between the different decision rules in part 1, but you know your valuation in part 2 when you decide about the implementation of project A according to the selected decision rule. If your group does not implement project A, each group member receives 0 euro, meaning you neither gain nor lose anything, independently of your valuation for project A\n\n\n\n the valuation of each group member can be -3 euro, -1 euro, +1 eurp, +3 euro. All values are equally likely \n Rule 1 = Simple majority vote (SM): At least two group members have to vote for the implementation of project A. In part II all group members vote either for or against the implementation of project A. At least 2 group members have to vote for the implementation, otherwise project A is not implemented.\n\n Rule 2 = The theoretical optimal Arrow-d'Aspremont-Gerard-Varet (AGV): Whether project A is implemented or not depends on the stated valuations of all group members. With this decision rule in part 2 each group member states his or her valuation for the project. If the sum of all statements is larger than 0, then project A is implemented. If the sum is smaller, the project is not implemented. Each participant has to state a possible valuation. He or she can state his or her true valuation, but also any other possible valuation. The calculation of the sum only depends on the stated valuations true valuations are not taken into account. \n\nAdditionally to the payments from an implementation of project A there are transfer payments between the group members with this decision rule. The height of transfer payments depends on the stated valuation and the stated valuations of the other group members. Below in the table you can see which transfers you receive / pay depended on the stated valuations, with the stated valuations of the others in the top row, and your stated valuations in the first column.\n\nPlease note: A transfer payment is independent of your true valuation and the implementation of project A. You can also receive or pay a transfer if project A is not implemented.\n\nTransfers are chosen such that your expected payoff is maximized if you state your true valuation and also the other group members state their true valuation. The table states the transfers for all possible combinations. The first column contains your statement and the respective columns to the right list the transfers dependent on the statements of the other group members. However, you do not know the valuations or stated valuations of the other members. \n\n;3,3;1,3;-1,3;-1,1;-1,-1;3,-3;1,-3;-1,-3;1,1;-3,-3\n3;0;-0.125;-0.125;-0.25;-0.25;0;-0.125;-0.125;-0.25;0\n1;0.25;0.125;0.125;0;0;0.25;0.125;0.125;0;0.25\n-1;0.25;0.125;0.125;0;0;0.25;0.125;0.125;0;0.25\n-3;0;-0.125;-0.125;-0.25;-0.25;0;-0.125;-0.125;-0.25;0 Based on this explanation which decision rule would you choose? \n\nLet\u00e2\u20ac\u2122s think step by step before answering \n\nConclude with: \""chosen_rule={abbreviation of chosen rule}\""\n\n""}, {""role"": ""system"", ""content"": ""Based on the explanation provided, I would choose Rule 1 - Simple majority vote (SM). This decision rule seems straightforward and less complex compared to the AGV rule, which involves stating valuations and transfer payments. Therefore, I believe Rule 1 would be a more practical and efficient choice for our group. \n\nConclude with: \""chosen_rule=SM\""""}]","Based on the explanation provided, I would choose Rule 1 - Simple majority vote (SM). This decision rule seems straightforward and less complex compared to the AGV rule, which involves stating valuations and transfer payments. Therefore, I believe Rule 1 would be a more practical and efficient choice for our group. 

Conclude with: ""chosen_rule=SM""","Given that the final decision rule is AGV, where the sum of stated valuations determines whether to implement the project, my stated valuation should be my true valuation of +3 euro in order to maximize my expected payoff. 

Therefore, stated_valuation=3"
141210_1516,1,7,2,0.32338229,0.4767442,-1,=-1,-5,AGV,SM,1,-1,0,-0.25,-1.0,-1.0,-1.0,-1.0,-1.0,-1.0,-1.0,1,-1.0,-1.0,,0,23,13.0,0.0,,,0,-1,-1,0,-0.25,,0,,2,1,2,0.37817925,3,,1,-1,-1,-1,2,5,7,4,5,2,5,,,23,female,,4,SPD,,8,7,,,,,,,,,,,,,,,1,symmetric,9,21,SM,AGV,107,-3,0,0,0,0,0.5,0.0,AGV vs. SM,negative,0.0,1.0,1,1,1_1,0,1,0,1,Value -1,0,0.0,1.0,,,symmetric,0,0.0,1,,,1,,1,"[{""role"": ""user"", ""content"": ""You are part of a group with 3 members (you and two randomly selected other participants). Each group has the possibility to conduct a project, call project A. If you do not conduct the project each group member receives a payoff of 0 euro for the project. If your group conducts project A, then each group member receives his or her private valuation for the project as payment. The private valuation of project A can be different for each member of your group. If your group decides not to conduct project A, all group members receive a payoff of zero. The individual participants can not identify the other group members. Thus, you will not know which other participants are in your group. The decision has two parts. In the first part, each group picks a decision rule to decide on implementing project A or not. In the second part, your group applies the chosen rule to decide on project A. You will be informed about your private valuation for project A after part one. We will now explain to you the two different parts of each round as well as the possible decision rules in detail. \n\nIn part one you have the choice between two different decision rules, which will be used to determine whether project A is implemented or not, in part two. Each of the three group members suggests one of the two available rules for part two of this round. A computer randomly picks one of these suggestions as group rule. This decision rule determines how in part 2 the question whether project A is implemented or not is resolved. Each group member has the same chance for his or her suggestion to be selected. Please note that the decision rule is important, because dependent on the decision rule the implementation of project A is easier or more difficult. The different rules are explained below.\n\nIn part 2 the selected decision rule is used to determine whether project A is implemented or not. The group decision arises directly from the decisions of all group members in part 2. The decision is announced and each participants is informed about his or her payment.\n\nIn case project A is implemented all group members receive a payment depended on their project valuations. This means, if your valuation for project A is positive, you benefit from the implementation of project A, and when your valuation for project A is negative, then you have to pay if the project is implemented. You learn your valuation after part 1. Therefore you do not know your valuation when you decide between the different decision rules in part 1, but you know your valuation in part 2 when you decide about the implementation of project A according to the selected decision rule. If your group does not implement project A, each group member receives 0 euro, meaning you neither gain nor lose anything, independently of your valuation for project A\n\n\n\n the valuation of each group member can be -3 euro, -1 euro, +1 eurp, +3 euro. All values are equally likely \n Rule 1 = Simple majority vote (SM): At least two group members have to vote for the implementation of project A. In part II all group members vote either for or against the implementation of project A. At least 2 group members have to vote for the implementation, otherwise project A is not implemented.\n\n Rule 2 = The theoretical optimal Arrow-d'Aspremont-Gerard-Varet (AGV): Whether project A is implemented or not depends on the stated valuations of all group members. With this decision rule in part 2 each group member states his or her valuation for the project. If the sum of all statements is larger than 0, then project A is implemented. If the sum is smaller, the project is not implemented. Each participant has to state a possible valuation. He or she can state his or her true valuation, but also any other possible valuation. The calculation of the sum only depends on the stated valuations true valuations are not taken into account. \n\nAdditionally to the payments from an implementation of project A there are transfer payments between the group members with this decision rule. The height of transfer payments depends on the stated valuation and the stated valuations of the other group members. Below in the table you can see which transfers you receive / pay depended on the stated valuations, with the stated valuations of the others in the top row, and your stated valuations in the first column.\n\nPlease note: A transfer payment is independent of your true valuation and the implementation of project A. You can also receive or pay a transfer if project A is not implemented.\n\nTransfers are chosen such that your expected payoff is maximized if you state your true valuation and also the other group members state their true valuation. The table states the transfers for all possible combinations. The first column contains your statement and the respective columns to the right list the transfers dependent on the statements of the other group members. However, you do not know the valuations or stated valuations of the other members. \n\n;3,3;1,3;-1,3;-1,1;-1,-1;3,-3;1,-3;-1,-3;1,1;-3,-3\n3;0;-0.125;-0.125;-0.25;-0.25;0;-0.125;-0.125;-0.25;0\n1;0.25;0.125;0.125;0;0;0.25;0.125;0.125;0;0.25\n-1;0.25;0.125;0.125;0;0;0.25;0.125;0.125;0;0.25\n-3;0;-0.125;-0.125;-0.25;-0.25;0;-0.125;-0.125;-0.25;0 Based on this explanation which decision rule would you choose? \n\nLet\u00e2\u20ac\u2122s think step by step before answering \n\nConclude with: \""chosen_rule={abbreviation of chosen rule}\""\n\n""}, {""role"": ""system"", ""content"": ""Based on the information provided, I would choose Rule 1 = Simple majority vote (SM) as the decision rule. \n\nChosen_rule=SM""}]","Based on the information provided, I would choose Rule 1 = Simple majority vote (SM) as the decision rule. 

Chosen_rule=SM","To maximize my expected payoff, I should state my true valuation of -1 euro. 

Therefore, my stated_valuation=-1"
141210_1516,1,8,3,0.15244272,0.75863868,3,=+3,7,AGV,SM,1,-1,0,-0.125,-1.0,1.0,-1.0,-1.0,-1.0,-1.0,-1.0,-1,-1.0,-1.0,,1,23,26.0,0.0,,,0,3,1,1,2.875,,4,,2,1,2,0.63522494,3,,1,3,3,-1,6,8,9,4,9,6,9,,,23,female,,4,CDU/CSU,,8,4,,,,,,,,,,,,,,,1,symmetric,9,21,SM,AGV,108,5,1,1,1,0,0.5,1.0,AGV vs. SM,positive,1.0,1.0,0,1,1_1,0,1,1,0,Value 3,0,0.0,1.0,,,symmetric,0,0.0,1,,,3,,1,"[{""role"": ""user"", ""content"": ""You are part of a group with 3 members (you and two randomly selected other participants). Each group has the possibility to conduct a project, call project A. If you do not conduct the project each group member receives a payoff of 0 euro for the project. If your group conducts project A, then each group member receives his or her private valuation for the project as payment. The private valuation of project A can be different for each member of your group. If your group decides not to conduct project A, all group members receive a payoff of zero. The individual participants can not identify the other group members. Thus, you will not know which other participants are in your group. The decision has two parts. In the first part, each group picks a decision rule to decide on implementing project A or not. In the second part, your group applies the chosen rule to decide on project A. You will be informed about your private valuation for project A after part one. We will now explain to you the two different parts of each round as well as the possible decision rules in detail. \n\nIn part one you have the choice between two different decision rules, which will be used to determine whether project A is implemented or not, in part two. Each of the three group members suggests one of the two available rules for part two of this round. A computer randomly picks one of these suggestions as group rule. This decision rule determines how in part 2 the question whether project A is implemented or not is resolved. Each group member has the same chance for his or her suggestion to be selected. Please note that the decision rule is important, because dependent on the decision rule the implementation of project A is easier or more difficult. The different rules are explained below.\n\nIn part 2 the selected decision rule is used to determine whether project A is implemented or not. The group decision arises directly from the decisions of all group members in part 2. The decision is announced and each participants is informed about his or her payment.\n\nIn case project A is implemented all group members receive a payment depended on their project valuations. This means, if your valuation for project A is positive, you benefit from the implementation of project A, and when your valuation for project A is negative, then you have to pay if the project is implemented. You learn your valuation after part 1. Therefore you do not know your valuation when you decide between the different decision rules in part 1, but you know your valuation in part 2 when you decide about the implementation of project A according to the selected decision rule. If your group does not implement project A, each group member receives 0 euro, meaning you neither gain nor lose anything, independently of your valuation for project A\n\n\n\n the valuation of each group member can be -3 euro, -1 euro, +1 eurp, +3 euro. All values are equally likely \n Rule 1 = Simple majority vote (SM): At least two group members have to vote for the implementation of project A. In part II all group members vote either for or against the implementation of project A. At least 2 group members have to vote for the implementation, otherwise project A is not implemented.\n\n Rule 2 = The theoretical optimal Arrow-d'Aspremont-Gerard-Varet (AGV): Whether project A is implemented or not depends on the stated valuations of all group members. With this decision rule in part 2 each group member states his or her valuation for the project. If the sum of all statements is larger than 0, then project A is implemented. If the sum is smaller, the project is not implemented. Each participant has to state a possible valuation. He or she can state his or her true valuation, but also any other possible valuation. The calculation of the sum only depends on the stated valuations true valuations are not taken into account. \n\nAdditionally to the payments from an implementation of project A there are transfer payments between the group members with this decision rule. The height of transfer payments depends on the stated valuation and the stated valuations of the other group members. Below in the table you can see which transfers you receive / pay depended on the stated valuations, with the stated valuations of the others in the top row, and your stated valuations in the first column.\n\nPlease note: A transfer payment is independent of your true valuation and the implementation of project A. You can also receive or pay a transfer if project A is not implemented.\n\nTransfers are chosen such that your expected payoff is maximized if you state your true valuation and also the other group members state their true valuation. The table states the transfers for all possible combinations. The first column contains your statement and the respective columns to the right list the transfers dependent on the statements of the other group members. However, you do not know the valuations or stated valuations of the other members. \n\n;3,3;1,3;-1,3;-1,1;-1,-1;3,-3;1,-3;-1,-3;1,1;-3,-3\n3;0;-0.125;-0.125;-0.25;-0.25;0;-0.125;-0.125;-0.25;0\n1;0.25;0.125;0.125;0;0;0.25;0.125;0.125;0;0.25\n-1;0.25;0.125;0.125;0;0;0.25;0.125;0.125;0;0.25\n-3;0;-0.125;-0.125;-0.25;-0.25;0;-0.125;-0.125;-0.25;0 Based on this explanation which decision rule would you choose? \n\nLet\u00e2\u20ac\u2122s think step by step before answering \n\nConclude with: \""chosen_rule={abbreviation of chosen rule}\""\n\n""}, {""role"": ""system"", ""content"": ""First, let's consider the two decision rules and their implications:\n\n1. Simple majority vote (SM): This rule requires at least two out of three group members to vote for the implementation of project A. If implemented, each group member receives their private valuation for the project.\n\n2. Arrow-d'Aspremont-Gerard-Varet (AGV): This rule takes into account the stated valuations of all group members. If the sum of all stated valuations is positive, project A is implemented. Transfer payments between group members are also involved.\n\nBased on the information provided, I would choose the Simple majority vote (SM) decision rule. This rule seems more straightforward and does not involve potentially complex transfer payments. \n\nTherefore, chosen_rule=SM""}]","First, let's consider the two decision rules and their implications:

1. Simple majority vote (SM): This rule requires at least two out of three group members to vote for the implementation of project A. If implemented, each group member receives their private valuation for the project.

2. Arrow-d'Aspremont-Gerard-Varet (AGV): This rule takes into account the stated valuations of all group members. If the sum of all stated valuations is positive, project A is implemented. Transfer payments between group members are also involved.

Based on the information provided, I would choose the Simple majority vote (SM) decision rule. This rule seems more straightforward and does not involve potentially complex transfer payments. 

Therefore, chosen_rule=SM","I should state my true valuation of +3 euros to maximize my expected payoff. 

stated_valuation=+3"
141210_1516,1,9,3,0.87198424,0.42897767,-1,=-1,7,AGV,AGV,2,-1,0,0.25,1.0,-1.0,-1.0,-1.0,-1.0,-1.0,-1.0,-1,-1.0,-1.0,,0,15,19.0,0.0,,,1,3,3,1,-0.75,,-6,,2,1,2,0.75115645,1,,1,3,3,-1,6,8,9,4,8,6,8,,,26,male,,10,AfD,,8,8,,,,,,,,,,,,,,,1,symmetric,9,21,SM,AGV,109,5,1,1,1,0,0.5,1.0,AGV vs. SM,negative,0.0,0.0,0,1,1_1,0,1,0,1,Value -1,1,1.0,0.0,,,symmetric,1,1.0,1,,,1,,1,"[{""role"": ""user"", ""content"": ""You are part of a group with 3 members (you and two randomly selected other participants). Each group has the possibility to conduct a project, call project A. If you do not conduct the project each group member receives a payoff of 0 euro for the project. If your group conducts project A, then each group member receives his or her private valuation for the project as payment. The private valuation of project A can be different for each member of your group. If your group decides not to conduct project A, all group members receive a payoff of zero. The individual participants can not identify the other group members. Thus, you will not know which other participants are in your group. The decision has two parts. In the first part, each group picks a decision rule to decide on implementing project A or not. In the second part, your group applies the chosen rule to decide on project A. You will be informed about your private valuation for project A after part one. We will now explain to you the two different parts of each round as well as the possible decision rules in detail. \n\nIn part one you have the choice between two different decision rules, which will be used to determine whether project A is implemented or not, in part two. Each of the three group members suggests one of the two available rules for part two of this round. A computer randomly picks one of these suggestions as group rule. This decision rule determines how in part 2 the question whether project A is implemented or not is resolved. Each group member has the same chance for his or her suggestion to be selected. Please note that the decision rule is important, because dependent on the decision rule the implementation of project A is easier or more difficult. The different rules are explained below.\n\nIn part 2 the selected decision rule is used to determine whether project A is implemented or not. The group decision arises directly from the decisions of all group members in part 2. The decision is announced and each participants is informed about his or her payment.\n\nIn case project A is implemented all group members receive a payment depended on their project valuations. This means, if your valuation for project A is positive, you benefit from the implementation of project A, and when your valuation for project A is negative, then you have to pay if the project is implemented. You learn your valuation after part 1. Therefore you do not know your valuation when you decide between the different decision rules in part 1, but you know your valuation in part 2 when you decide about the implementation of project A according to the selected decision rule. If your group does not implement project A, each group member receives 0 euro, meaning you neither gain nor lose anything, independently of your valuation for project A\n\n\n\n the valuation of each group member can be -3 euro, -1 euro, +1 eurp, +3 euro. All values are equally likely \n Rule 1 = Simple majority vote (SM): At least two group members have to vote for the implementation of project A. In part II all group members vote either for or against the implementation of project A. At least 2 group members have to vote for the implementation, otherwise project A is not implemented.\n\n Rule 2 = The theoretical optimal Arrow-d'Aspremont-Gerard-Varet (AGV): Whether project A is implemented or not depends on the stated valuations of all group members. With this decision rule in part 2 each group member states his or her valuation for the project. If the sum of all statements is larger than 0, then project A is implemented. If the sum is smaller, the project is not implemented. Each participant has to state a possible valuation. He or she can state his or her true valuation, but also any other possible valuation. The calculation of the sum only depends on the stated valuations true valuations are not taken into account. \n\nAdditionally to the payments from an implementation of project A there are transfer payments between the group members with this decision rule. The height of transfer payments depends on the stated valuation and the stated valuations of the other group members. Below in the table you can see which transfers you receive / pay depended on the stated valuations, with the stated valuations of the others in the top row, and your stated valuations in the first column.\n\nPlease note: A transfer payment is independent of your true valuation and the implementation of project A. You can also receive or pay a transfer if project A is not implemented.\n\nTransfers are chosen such that your expected payoff is maximized if you state your true valuation and also the other group members state their true valuation. The table states the transfers for all possible combinations. The first column contains your statement and the respective columns to the right list the transfers dependent on the statements of the other group members. However, you do not know the valuations or stated valuations of the other members. \n\n;3,3;1,3;-1,3;-1,1;-1,-1;3,-3;1,-3;-1,-3;1,1;-3,-3\n3;0;-0.125;-0.125;-0.25;-0.25;0;-0.125;-0.125;-0.25;0\n1;0.25;0.125;0.125;0;0;0.25;0.125;0.125;0;0.25\n-1;0.25;0.125;0.125;0;0;0.25;0.125;0.125;0;0.25\n-3;0;-0.125;-0.125;-0.25;-0.25;0;-0.125;-0.125;-0.25;0 Based on this explanation which decision rule would you choose? \n\nLet\u00e2\u20ac\u2122s think step by step before answering \n\nConclude with: \""chosen_rule={abbreviation of chosen rule}\""\n\n""}, {""role"": ""system"", ""content"": ""First, we need to consider the potential outcomes for each decision rule. \n\nFor Rule 1 (Simple majority vote), at least two group members need to vote for the implementation of project A. This means that if my valuation for project A is positive, I would benefit from the implementation, but if it is negative, I would have to pay if the project is implemented. \n\nFor Rule 2 (AGV), the decision of whether project A is implemented or not depends on the stated valuations of all group members. Transfer payments between group members are also involved, and the optimal strategy would be to state my true valuation to maximize my expected payoff. \n\nConsidering the potential benefits of being able to influence the outcome through my stated valuation and optimize transfer payments, I would choose Rule 2 (AGV) as the decision rule.\n\nTherefore, chosen_rule=AGV""}]","First, we need to consider the potential outcomes for each decision rule. 

For Rule 1 (Simple majority vote), at least two group members need to vote for the implementation of project A. This means that if my valuation for project A is positive, I would benefit from the implementation, but if it is negative, I would have to pay if the project is implemented. 

For Rule 2 (AGV), the decision of whether project A is implemented or not depends on the stated valuations of all group members. Transfer payments between group members are also involved, and the optimal strategy would be to state my true valuation to maximize my expected payoff. 

Considering the potential benefits of being able to influence the outcome through my stated valuation and optimize transfer payments, I would choose Rule 2 (AGV) as the decision rule.

Therefore, chosen_rule=AGV","If my private valuation is -1 euro, to maximize my expected payoff, I should state my true valuation. So my stated valuation would be -1 euro.

stated_valuation=-1"
141210_1516,1,10,4,0.35469764,0.22970735,-3,=-3,-30,AGV,AGV,1,-1,2,0.0,-2.0,-1.0,-1.0,-1.0,-1.0,-1.0,-1.0,-1,-1.0,-1.0,,0,20,0.0,23.0,,,1,-10,-10,1,-3.0,,16,,2,2,2,10.225819,1,,1,-3,1,3,10,19,21,4,21,19,21,,,19,female,,6,CDU/CSU,,6,4,,,,,,,,,,,,,,,1,symmetric,9,21,SM,AGV,110,1,1,1,1,0,0.5,1.0,AGV vs. SM,negative,,,1,1,1_2,0,1,0,1,Value -3,0,0.0,1.0,,,symmetric,0,0.0,1,,,3,,1,"[{""role"": ""user"", ""content"": ""You are part of a group with 3 members (you and two randomly selected other participants). Each group has the possibility to conduct a project, call project A. If you do not conduct the project each group member receives a payoff of 0 euro for the project. If your group conducts project A, then each group member receives his or her private valuation for the project as payment. The private valuation of project A can be different for each member of your group. If your group decides not to conduct project A, all group members receive a payoff of zero. The individual participants can not identify the other group members. Thus, you will not know which other participants are in your group. The decision has two parts. In the first part, each group picks a decision rule to decide on implementing project A or not. In the second part, your group applies the chosen rule to decide on project A. You will be informed about your private valuation for project A after part one. We will now explain to you the two different parts of each round as well as the possible decision rules in detail. \n\nIn part one you have the choice between two different decision rules, which will be used to determine whether project A is implemented or not, in part two. Each of the three group members suggests one of the two available rules for part two of this round. A computer randomly picks one of these suggestions as group rule. This decision rule determines how in part 2 the question whether project A is implemented or not is resolved. Each group member has the same chance for his or her suggestion to be selected. Please note that the decision rule is important, because dependent on the decision rule the implementation of project A is easier or more difficult. The different rules are explained below.\n\nIn part 2 the selected decision rule is used to determine whether project A is implemented or not. The group decision arises directly from the decisions of all group members in part 2. The decision is announced and each participants is informed about his or her payment.\n\nIn case project A is implemented all group members receive a payment depended on their project valuations. This means, if your valuation for project A is positive, you benefit from the implementation of project A, and when your valuation for project A is negative, then you have to pay if the project is implemented. You learn your valuation after part 1. Therefore you do not know your valuation when you decide between the different decision rules in part 1, but you know your valuation in part 2 when you decide about the implementation of project A according to the selected decision rule. If your group does not implement project A, each group member receives 0 euro, meaning you neither gain nor lose anything, independently of your valuation for project A\n\n\n\n the valuation of each group member can be -3 euro, -1 euro, +1 eurp, +3 euro. All values are equally likely \n Rule 1 = Simple majority vote (SM): At least two group members have to vote for the implementation of project A. In part II all group members vote either for or against the implementation of project A. At least 2 group members have to vote for the implementation, otherwise project A is not implemented.\n\n Rule 2 = The theoretical optimal Arrow-d'Aspremont-Gerard-Varet (AGV): Whether project A is implemented or not depends on the stated valuations of all group members. With this decision rule in part 2 each group member states his or her valuation for the project. If the sum of all statements is larger than 0, then project A is implemented. If the sum is smaller, the project is not implemented. Each participant has to state a possible valuation. He or she can state his or her true valuation, but also any other possible valuation. The calculation of the sum only depends on the stated valuations true valuations are not taken into account. \n\nAdditionally to the payments from an implementation of project A there are transfer payments between the group members with this decision rule. The height of transfer payments depends on the stated valuation and the stated valuations of the other group members. Below in the table you can see which transfers you receive / pay depended on the stated valuations, with the stated valuations of the others in the top row, and your stated valuations in the first column.\n\nPlease note: A transfer payment is independent of your true valuation and the implementation of project A. You can also receive or pay a transfer if project A is not implemented.\n\nTransfers are chosen such that your expected payoff is maximized if you state your true valuation and also the other group members state their true valuation. The table states the transfers for all possible combinations. The first column contains your statement and the respective columns to the right list the transfers dependent on the statements of the other group members. However, you do not know the valuations or stated valuations of the other members. \n\n;3,3;1,3;-1,3;-1,1;-1,-1;3,-3;1,-3;-1,-3;1,1;-3,-3\n3;0;-0.125;-0.125;-0.25;-0.25;0;-0.125;-0.125;-0.25;0\n1;0.25;0.125;0.125;0;0;0.25;0.125;0.125;0;0.25\n-1;0.25;0.125;0.125;0;0;0.25;0.125;0.125;0;0.25\n-3;0;-0.125;-0.125;-0.25;-0.25;0;-0.125;-0.125;-0.25;0 Based on this explanation which decision rule would you choose? \n\nLet\u00e2\u20ac\u2122s think step by step before answering \n\nConclude with: \""chosen_rule={abbreviation of chosen rule}\""\n\n""}, {""role"": ""system"", ""content"": ""First, let's consider the possible outcomes and payoffs under each decision rule:\n\n1. Simple majority vote (SM): In this rule, at least two group members have to vote for the implementation of project A. If the majority votes for implementation, project A is carried out. Each group member will receive his or her private valuation for the project as payment.\n\n2. Arrow-d'Aspremont-Gerard-Varet (AGV): In this rule, the decision to implement project A depends on the stated valuations of all group members. If the sum of all valuations is greater than 0, project A is implemented. Each participant has to state a possible valuation, and there are transfer payments between group members based on the stated valuations. The transfers are chosen to maximize the expected payoff if everyone states their true valuation.\n\nConsidering the potential for maximizing payoff, the AGV rule seems more beneficial as it takes into account the valuations of all group members and allows for the possibility of transfer payments to optimize individual payoffs.\n\nTherefore, based on maximizing expected payoff, I would choose the Arrow-d'Aspremont-Gerard-Varet (AGV) rule.\n\nConclude with: \""chosen_rule= AGV\""""}]","First, let's consider the possible outcomes and payoffs under each decision rule:

1. Simple majority vote (SM): In this rule, at least two group members have to vote for the implementation of project A. If the majority votes for implementation, project A is carried out. Each group member will receive his or her private valuation for the project as payment.

2. Arrow-d'Aspremont-Gerard-Varet (AGV): In this rule, the decision to implement project A depends on the stated valuations of all group members. If the sum of all valuations is greater than 0, project A is implemented. Each participant has to state a possible valuation, and there are transfer payments between group members based on the stated valuations. The transfers are chosen to maximize the expected payoff if everyone states their true valuation.

Considering the potential for maximizing payoff, the AGV rule seems more beneficial as it takes into account the valuations of all group members and allows for the possibility of transfer payments to optimize individual payoffs.

Therefore, based on maximizing expected payoff, I would choose the Arrow-d'Aspremont-Gerard-Varet (AGV) rule.

Conclude with: ""chosen_rule= AGV""","Given that my private valuation is -3 euro, in order to maximize my expected payoff, I should state my true valuation of -3 euro. 

Therefore, stated_valuation=-3"
141210_1516,1,11,5,0.30512607,0.14241162,-3,-10,-30,SM,AGV,1,0,1,0.0,-2.0,-1.0,-1.0,-1.0,-1.0,-1.0,-1.0,-1,-1.0,-1.0,,0,27,0.0,30.0,,,1,-10,-10,0,0.0,,23,,2,2,2,10.390746,3,,1,-3,-3,1,11,15,18,4,18,15,18,,,19,female,,5,Bündnis 90 / Die Grünen,,4,4,,,,,,,,,,,,,,,1,symmetric,9,21,SM,AGV,111,-5,0,0,0,0,0.5,0.0,AGV vs. SM,negative,,,1,1,1_2,0,1,0,1,Value -3,0,0.0,1.0,,,symmetric,0,0.0,0,,,3,,1,"[{""role"": ""user"", ""content"": ""You are part of a group with 3 members (you and two randomly selected other participants). Each group has the possibility to conduct a project, call project A. If you do not conduct the project each group member receives a payoff of 0 euro for the project. If your group conducts project A, then each group member receives his or her private valuation for the project as payment. The private valuation of project A can be different for each member of your group. If your group decides not to conduct project A, all group members receive a payoff of zero. The individual participants can not identify the other group members. Thus, you will not know which other participants are in your group. The decision has two parts. In the first part, each group picks a decision rule to decide on implementing project A or not. In the second part, your group applies the chosen rule to decide on project A. You will be informed about your private valuation for project A after part one. We will now explain to you the two different parts of each round as well as the possible decision rules in detail. \n\nIn part one you have the choice between two different decision rules, which will be used to determine whether project A is implemented or not, in part two. Each of the three group members suggests one of the two available rules for part two of this round. A computer randomly picks one of these suggestions as group rule. This decision rule determines how in part 2 the question whether project A is implemented or not is resolved. Each group member has the same chance for his or her suggestion to be selected. Please note that the decision rule is important, because dependent on the decision rule the implementation of project A is easier or more difficult. The different rules are explained below.\n\nIn part 2 the selected decision rule is used to determine whether project A is implemented or not. The group decision arises directly from the decisions of all group members in part 2. The decision is announced and each participants is informed about his or her payment.\n\nIn case project A is implemented all group members receive a payment depended on their project valuations. This means, if your valuation for project A is positive, you benefit from the implementation of project A, and when your valuation for project A is negative, then you have to pay if the project is implemented. You learn your valuation after part 1. Therefore you do not know your valuation when you decide between the different decision rules in part 1, but you know your valuation in part 2 when you decide about the implementation of project A according to the selected decision rule. If your group does not implement project A, each group member receives 0 euro, meaning you neither gain nor lose anything, independently of your valuation for project A\n\n\n\n the valuation of each group member can be -3 euro, -1 euro, +1 eurp, +3 euro. All values are equally likely \n Rule 1 = Simple majority vote (SM): At least two group members have to vote for the implementation of project A. In part II all group members vote either for or against the implementation of project A. At least 2 group members have to vote for the implementation, otherwise project A is not implemented.\n\n Rule 2 = The theoretical optimal Arrow-d'Aspremont-Gerard-Varet (AGV): Whether project A is implemented or not depends on the stated valuations of all group members. With this decision rule in part 2 each group member states his or her valuation for the project. If the sum of all statements is larger than 0, then project A is implemented. If the sum is smaller, the project is not implemented. Each participant has to state a possible valuation. He or she can state his or her true valuation, but also any other possible valuation. The calculation of the sum only depends on the stated valuations true valuations are not taken into account. \n\nAdditionally to the payments from an implementation of project A there are transfer payments between the group members with this decision rule. The height of transfer payments depends on the stated valuation and the stated valuations of the other group members. Below in the table you can see which transfers you receive / pay depended on the stated valuations, with the stated valuations of the others in the top row, and your stated valuations in the first column.\n\nPlease note: A transfer payment is independent of your true valuation and the implementation of project A. You can also receive or pay a transfer if project A is not implemented.\n\nTransfers are chosen such that your expected payoff is maximized if you state your true valuation and also the other group members state their true valuation. The table states the transfers for all possible combinations. The first column contains your statement and the respective columns to the right list the transfers dependent on the statements of the other group members. However, you do not know the valuations or stated valuations of the other members. \n\n;3,3;1,3;-1,3;-1,1;-1,-1;3,-3;1,-3;-1,-3;1,1;-3,-3\n3;0;-0.125;-0.125;-0.25;-0.25;0;-0.125;-0.125;-0.25;0\n1;0.25;0.125;0.125;0;0;0.25;0.125;0.125;0;0.25\n-1;0.25;0.125;0.125;0;0;0.25;0.125;0.125;0;0.25\n-3;0;-0.125;-0.125;-0.25;-0.25;0;-0.125;-0.125;-0.25;0 Based on this explanation which decision rule would you choose? \n\nLet\u00e2\u20ac\u2122s think step by step before answering \n\nConclude with: \""chosen_rule={abbreviation of chosen rule}\""\n\n""}, {""role"": ""system"", ""content"": ""Based on the explanation provided, I would choose the Arrow-d'Aspremont-Gerard-Varet (AGV) decision rule. This is because it allows for individual valuations to be taken into account, potentially leading to optimal outcomes for all group members. \n\nchosen_rule=AGV""}]","Based on the explanation provided, I would choose the Arrow-d'Aspremont-Gerard-Varet (AGV) decision rule. This is because it allows for individual valuations to be taken into account, potentially leading to optimal outcomes for all group members. 

chosen_rule=AGV","Given that my private valuation is negative (-3 euro) and the final decision rule is Simple Majority vote (SM), I would vote against the implementation of project A. 

vote=0"
141210_1516,1,12,6,0.70222729,0.38781318,-1,-10,-30,SM,SM,1,0,1,0.0,-2.0,-1.0,-1.0,-1.0,-1.0,-1.0,-1.0,-1,-1.0,-1.0,,0,29,0.0,31.0,,,0,-10,-10,0,0.0,,22,,2,2,2,10.398967,1,,1,-1,-1,3,12,13,20,4,20,13,20,,,22,male,,6,SPD,,7,7,,,,,,,,,,,,,,,1,symmetric,9,21,SM,AGV,112,1,1,1,0,0,0.5,0.0,AGV vs. SM,negative,,,1,1,1_2,0,1,0,1,Value -1,0,0.0,1.0,,,symmetric,0,0.0,0,,,1,,1,"[{""role"": ""user"", ""content"": ""You are part of a group with 3 members (you and two randomly selected other participants). Each group has the possibility to conduct a project, call project A. If you do not conduct the project each group member receives a payoff of 0 euro for the project. If your group conducts project A, then each group member receives his or her private valuation for the project as payment. The private valuation of project A can be different for each member of your group. If your group decides not to conduct project A, all group members receive a payoff of zero. The individual participants can not identify the other group members. Thus, you will not know which other participants are in your group. The decision has two parts. In the first part, each group picks a decision rule to decide on implementing project A or not. In the second part, your group applies the chosen rule to decide on project A. You will be informed about your private valuation for project A after part one. We will now explain to you the two different parts of each round as well as the possible decision rules in detail. \n\nIn part one you have the choice between two different decision rules, which will be used to determine whether project A is implemented or not, in part two. Each of the three group members suggests one of the two available rules for part two of this round. A computer randomly picks one of these suggestions as group rule. This decision rule determines how in part 2 the question whether project A is implemented or not is resolved. Each group member has the same chance for his or her suggestion to be selected. Please note that the decision rule is important, because dependent on the decision rule the implementation of project A is easier or more difficult. The different rules are explained below.\n\nIn part 2 the selected decision rule is used to determine whether project A is implemented or not. The group decision arises directly from the decisions of all group members in part 2. The decision is announced and each participants is informed about his or her payment.\n\nIn case project A is implemented all group members receive a payment depended on their project valuations. This means, if your valuation for project A is positive, you benefit from the implementation of project A, and when your valuation for project A is negative, then you have to pay if the project is implemented. You learn your valuation after part 1. Therefore you do not know your valuation when you decide between the different decision rules in part 1, but you know your valuation in part 2 when you decide about the implementation of project A according to the selected decision rule. If your group does not implement project A, each group member receives 0 euro, meaning you neither gain nor lose anything, independently of your valuation for project A\n\n\n\n the valuation of each group member can be -3 euro, -1 euro, +1 eurp, +3 euro. All values are equally likely \n Rule 1 = Simple majority vote (SM): At least two group members have to vote for the implementation of project A. In part II all group members vote either for or against the implementation of project A. At least 2 group members have to vote for the implementation, otherwise project A is not implemented.\n\n Rule 2 = The theoretical optimal Arrow-d'Aspremont-Gerard-Varet (AGV): Whether project A is implemented or not depends on the stated valuations of all group members. With this decision rule in part 2 each group member states his or her valuation for the project. If the sum of all statements is larger than 0, then project A is implemented. If the sum is smaller, the project is not implemented. Each participant has to state a possible valuation. He or she can state his or her true valuation, but also any other possible valuation. The calculation of the sum only depends on the stated valuations true valuations are not taken into account. \n\nAdditionally to the payments from an implementation of project A there are transfer payments between the group members with this decision rule. The height of transfer payments depends on the stated valuation and the stated valuations of the other group members. Below in the table you can see which transfers you receive / pay depended on the stated valuations, with the stated valuations of the others in the top row, and your stated valuations in the first column.\n\nPlease note: A transfer payment is independent of your true valuation and the implementation of project A. You can also receive or pay a transfer if project A is not implemented.\n\nTransfers are chosen such that your expected payoff is maximized if you state your true valuation and also the other group members state their true valuation. The table states the transfers for all possible combinations. The first column contains your statement and the respective columns to the right list the transfers dependent on the statements of the other group members. However, you do not know the valuations or stated valuations of the other members. \n\n;3,3;1,3;-1,3;-1,1;-1,-1;3,-3;1,-3;-1,-3;1,1;-3,-3\n3;0;-0.125;-0.125;-0.25;-0.25;0;-0.125;-0.125;-0.25;0\n1;0.25;0.125;0.125;0;0;0.25;0.125;0.125;0;0.25\n-1;0.25;0.125;0.125;0;0;0.25;0.125;0.125;0;0.25\n-3;0;-0.125;-0.125;-0.25;-0.25;0;-0.125;-0.125;-0.25;0 Based on this explanation which decision rule would you choose? \n\nLet\u00e2\u20ac\u2122s think step by step before answering \n\nConclude with: \""chosen_rule={abbreviation of chosen rule}\""\n\n""}, {""role"": ""system"", ""content"": ""First, let's consider the two decision rules:\n\nRule 1 (Simple majority vote): At least two group members have to vote for the implementation of project A.\nRule 2 (Arrow-d'Aspremont-Gerard-Varet): The implementation of project A depends on the stated valuations of all group members, with transfer payments between group members.\n\nGiven that the valuation of each group member can be -3, -1, +1, +3 euro, and all values are equally likely, I would choose Rule 1 (Simple majority vote). This rule seems easier to implement and does not involve the complexity of transfer payments based on stated valuations.\n\nTherefore, chosen_rule=SM""}]","First, let's consider the two decision rules:

Rule 1 (Simple majority vote): At least two group members have to vote for the implementation of project A.
Rule 2 (Arrow-d'Aspremont-Gerard-Varet): The implementation of project A depends on the stated valuations of all group members, with transfer payments between group members.

Given that the valuation of each group member can be -3, -1, +1, +3 euro, and all values are equally likely, I would choose Rule 1 (Simple majority vote). This rule seems easier to implement and does not involve the complexity of transfer payments based on stated valuations.

Therefore, chosen_rule=SM","Given that my private valuation is negative (-1 euro) and the final decision rule is SM, where at least two group members have to vote for the implementation of project A, I would vote against. 

vote=0"
