session,Period,Subject,matching_group,rand,r,Valuation,reported_valuation,sum_reported_valuations,GroupDecisionRule,GroupDecisionVote,GroupDecisionVote_XY,vote,VotesInFavour,transfer,reports_others_3_3,reports_others_3_1,reports_others_3_minus_1,reports_others_3_minus_3,reports_others_1_1,reports_others_1_minus_1,reports_others_1_minus_3,reports_others_minus_1_minus_1,reports_others_minus_1_minus_3,reports_others_minus_3_minus_3,TimeOKTestQuestionsOK,positive,TimeOKStageONEOK,TimeWertschaetbenStageTWOAGVOK,TimeStimmeAbgebenStageTWOK2OK,TimeWEITERStageTWOStatusQuoOK,TimeZumMuenzwuImplementationOK,Draw_random_provision,ReportsVector1,ReportsVector2,provision,payoff,earnings,TimeOKOUTPUTRESULTSOK,TimeOKEndOfTrialRoundsOK,independent_groups,group_formation,i,random_number,rank,TimeWEITERWAITNGAFTERROUND12OK,NumberRank,ValuationVector1,ValuationVector2,ValuationVector3,snr1,snr2,snr3,x,y,srnr1,srnr2,SelectedPeriod,TimeOKProfitInfoOK,Age,Gender,TimeOKQuestionaire1OK,Orientation,Party,TimeOKQuestionaire2OK,risk_self,risk_others,TimeOKQuestionaire3OK,reports_others_7_7,reports_others_7_1,reports_others_7_minus_1,reports_others_7_minus_3,reports_others_3_minus_7,reports_others_1_minus_7,reports_others_minus_1_minus_7,reports_others_minus_7_minus_7,reports_others_7_minus_2,reports_others_minus_1_minus_2,reports_others_minus_2_minus_2,reports_others_minus_2_minus_3,Study_Subject,Session_number,treatment_distribution,maxsession,maxsubject,Rule_1,Rule_2,identifier,SurplusGroup,EfficientChoice,HypotheticalResultAGV,HypotheticalResultSM,HypotheticalResultSQ,HypotheticalResultRAND,ChoiceResultSubject,BinaryChoice,dummy_valuation_negative,truth_telling,truth_telling_sign,never_misreports_sign,block,session_match,ad_interim_round,ex_ante_round,valuation_positive,valuation_negative,Value_factor,Rule_Vote,chose_AGV,chose_SM,chose_NSQ,chose_RAND,treatment_number,efficient,efficient_mech_choice,ex_ante_efficient,GK_prefAGV,TaxTheWinner,absVal,Veto,comparison_order_inverted
141210_1516,13,1,2,.68779242,.65557855,1,-10,-30,SM,SM,1,Yes,2,0,-2,-1,-1,-1,-1,-1,-1,-1,-1,-1,,1,36,0,37,,,1,-10,-10,1,1,,25,,2,1,2,.53986871,1,111,1,1,-1,3,1,3,8,4,8,3,8,,,64,male,,3,Die Linke,,5,5,,,,,,,,,,,,,,,1,symmetric,9,21,SM,AGV,101,3,1,1,1,0,.5,1,AGV vs. SM,positive,,,0,3,1_1,1,0,1,0,Value 1,0,0,1,,,symmetric,0,0,0,0,,1,,1
141210_1516,9,1,1,.36835492,.29645094,-1,-10,-30,SM,SM,2,No,2,0,-2,-1,-1,-1,-1,-1,-1,-1,-1,-1,,0,33,0,30,,,1,-10,-10,1,-1,,25,,2,1,2,.085002586,1,,1,-1,1,3,1,2,4,4,4,2,4,,,64,male,,3,Die Linke,,5,5,,,,,,,,,,,,,,,1,symmetric,9,21,AGV,SM,101,3,1,1,1,0,.5,1,AGV vs. SM,negative,,,0,2,1_1,0,1,0,1,Value -1,0,0,1,,,symmetric,0,0,0,,,1,,0
141210_1516,1,1,1,.81072801,.053471379,-3,3,9,AGV,AGV,2,-1,0,0,1,-1,-1,-1,-1,-1,-1,-1,-1,-1,,0,25,30,0,0,0,1,3,3,1,-3,9,19,,2,1,2,.10578297,1,0,1,-3,1,3,1,3,4,4,4,3,4,0,0,64,male,,3,Die Linke,,5,5,,,,,,,,,,,,,,,1,symmetric,9,21,SM,AGV,101,1,1,1,1,0,.5,1,AGV vs. SM,negative,0,0,0,1,1_1,0,1,0,1,Value -3,1,1,0,,,symmetric,1,1,0,,,3,,1
141210_1516,16,1,3,.95463616,.33083254,-1,3,7,AGV,NSQ,1,-1,0,-.125,-1,1,-1,-1,-1,-1,-1,-1,-1,-1,,0,37,36,,0,,0,3,1,1,-1.125,,24,,2,1,2,.85678542,2,,1,-1,1,1,1,3,9,4,9,3,9,,,64,male,,3,Die Linke,,5,5,,,,,,,,,,,,,,,1,symmetric,9,21,NSQ,AGV,101,1,1,1,1,0,.5,0,AGV vs. NSQ,negative,0,0,0,3,1_1,1,0,0,1,Value -1,0,0,,1,,symmetric,0,0,0,,,1,,1
141210_1516,4,1,1,.90393436,.17059815,-3,1,5,AGV,NSQ,1,-1,0,.125,-1,1,-1,-1,-1,-1,-1,-1,-1,-1,,0,34,33,,0,,1,3,1,1,-2.875,,19,,2,1,2,.25812548,2,,1,-3,1,1,1,4,7,4,7,4,7,,,64,male,,3,Die Linke,,5,5,,,,,,,,,,,,,,,1,symmetric,9,21,NSQ,AGV,101,-1,0,0,1,0,.5,0,AGV vs. NSQ,negative,0,0,0,1,1_1,0,1,0,1,Value -3,0,0,,1,,symmetric,0,0,0,,,3,,1
141210_1516,8,1,3,.1835279,.056636132,-3,3,7,AGV,NSQ,2,-1,0,-.125,-1,1,-1,-1,-1,-1,-1,-1,-1,-1,,0,34,31,,0,,0,1,3,1,-3.125,,14,,2,1,2,.85001844,3,,1,-3,1,3,1,5,8,4,8,5,8,,,64,male,,3,Die Linke,,5,5,,,,,,,,,,,,,,,1,symmetric,9,21,AGV,NSQ,101,1,1,1,1,0,.5,0,AGV vs. NSQ,negative,0,0,0,2,1_1,0,1,0,1,Value -3,0,0,,1,,symmetric,0,0,0,,,3,,0
141210_1516,15,1,1,.39240786,.58258331,1,3,3,AGV,AGV,1,-1,0,0,-1,-1,-1,1,-1,-1,-1,-1,-1,-1,,1,36,38,,,0,1,3,-3,1,1,,25,,2,1,2,.24919273,3,,1,1,1,-1,1,3,9,4,9,3,9,,,64,male,,3,Die Linke,,5,5,,,,,,,,,,,,,,,1,symmetric,9,21,AGV,RAND,101,1,1,1,1,0,.5,1,AGV vs. RAND,positive,0,1,0,3,1_1,1,0,1,0,Value 1,1,1,,,0,symmetric,1,1,0,,,1,,0
141210_1516,11,1,1,.31447548,.90562522,3,1,3,AGV,RAND,1,-1,0,.125,-1,-1,1,-1,-1,-1,-1,-1,-1,-1,,1,34,37,,,0,0,3,-1,1,3.125,,25,,2,1,2,.27180573,3,,1,3,3,-1,1,2,6,4,6,2,6,,,64,male,,3,Die Linke,,5,5,,,,,,,,,,,,,,,1,symmetric,9,21,RAND,AGV,101,5,1,1,1,0,.5,.5,AGV vs. RAND,positive,0,1,0,2,1_1,0,1,1,0,Value 3,0,0,,,1,symmetric,0,0,0,,,3,,1
141210_1516,3,1,2,.84693885,.50167155,1,-10,-30,RAND,RAND,2,-1,0,0,-2,-1,-1,-1,-1,-1,-1,-1,-1,-1,,1,30,0,,,38,0,-10,-10,0,0,,24,,2,1,2,.7356382,1,,1,1,1,3,1,3,6,4,6,3,6,,,64,male,,3,Die Linke,,5,5,,,,,,,,,,,,,,,1,symmetric,9,21,AGV,RAND,101,5,1,1,1,0,.5,.5,AGV vs. RAND,positive,,,0,1,1_1,0,1,1,0,Value 1,0,0,,,1,symmetric,0,0,0,,,1,,0
141210_1516,18,1,3,.69342989,.66527194,1,-10,-30,SM,SM,1,Yes,2,0,-2,-1,-1,-1,-1,-1,-1,-1,-1,-1,,1,34,,38,0,,0,-10,-10,1,1,9,25,,2,1,2,.97041708,2,,1,1,-1,1,1,3,5,4,5,3,5,7,20,64,male,,3,Die Linke,,5,5,,,,,,,,,,,,,,,1,symmetric,9,21,SM,NSQ,101,1,1,1,1,0,.5,1,SM vs. NSQ,positive,,,0,3,1_1,1,0,1,0,Value 1,1,,1,0,,symmetric,1,1,0,,,1,,0
141210_1516,6,1,1,.84854591,.4080582,-1,-10,-30,SM,SM,1,Yes,2,0,-2,-1,-1,-1,-1,-1,-1,-1,-1,-1,,0,34,,34,,,1,-10,-10,1,-1,,21,,2,1,2,.20182084,1,,1,-1,3,-3,1,2,5,4,5,2,5,,,64,male,,3,Die Linke,,5,5,,,,,,,,,,,,,,,1,symmetric,9,21,SM,NSQ,101,-1,0,0,0,0,.5,0,SM vs. NSQ,negative,,,0,1,1_1,0,1,0,1,Value -1,1,,1,0,,symmetric,1,1,1,,,1,,0
141210_1516,12,1,3,.21354382,.11377047,-3,-10,-30,SM,NSQ,1,No,0,0,-2,-1,-1,-1,-1,-1,-1,-1,-1,-1,,0,36,,36,,,1,-10,-10,0,0,,24,,2,1,2,.72131121,2,,1,-3,-1,-1,1,3,6,4,6,3,6,,,64,male,,3,Die Linke,,5,5,,,,,,,,,,,,,,,1,symmetric,9,21,NSQ,SM,101,-5,0,0,0,0,.5,0,SM vs. NSQ,negative,,,0,2,1_1,0,1,0,1,Value -3,0,,0,1,,symmetric,0,0,1,,,3,,1
141210_1516,14,1,3,.68601072,.80708081,3,-10,-30,SM,SM,1,No,1,0,-2,-1,-1,-1,-1,-1,-1,-1,-1,-1,,1,37,,38,,0,1,-10,-10,0,0,,24,,2,1,2,.8842048,2,,1,3,-1,1,1,2,7,4,7,2,7,,,64,male,,3,Die Linke,,5,5,,,,,,,,,,,,,,,1,symmetric,9,21,SM,RAND,101,3,1,1,1,0,.5,1,SM vs. RAND,positive,,,0,3,1_1,1,0,1,0,Value 3,1,,1,,0,symmetric,1,1,0,,,3,,0
141210_1516,2,1,1,.61267811,.96460819,3,-10,-30,SM,SM,1,No,1,0,-2,-1,-1,-1,-1,-1,-1,-1,-1,-1,,1,30,,32,,0,1,-10,-10,0,0,,22,,2,1,2,.13376755,2,,1,3,-1,1,1,2,9,4,9,2,9,,,64,male,,3,Die Linke,,5,5,,,,,,,,,,,,,,,1,symmetric,9,21,SM,RAND,101,3,1,1,1,0,.5,1,SM vs. RAND,positive,,,0,1,1_1,0,1,1,0,Value 3,1,,1,,0,symmetric,1,1,1,,,3,,0
141210_1516,7,1,2,.99708951,.92846769,3,-10,-30,RAND,RAND,1,-1,0,0,-2,-1,-1,-1,-1,-1,-1,-1,-1,-1,,1,32,,0,,39,1,-10,-10,1,3,,23,,2,1,2,.67740887,1,,1,3,-3,1,1,6,8,4,8,6,8,,,64,male,,3,Die Linke,,5,5,,,,,,,,,,,,,,,1,symmetric,9,21,RAND,SM,101,1,1,1,1,0,.5,.5,SM vs. RAND,positive,,,0,2,1_1,0,1,1,0,Value 3,0,,0,,1,symmetric,0,0,1,,,3,,1
141210_1516,17,1,3,.84413451,.22311926,-3,-10,-30,NSQ,NSQ,1,-1,0,0,-2,-1,-1,-1,-1,-1,-1,-1,-1,-1,,0,36,,,40,0,0,-10,-10,0,0,,24,,2,1,2,.88389146,2,,1,-3,-3,-3,1,4,7,4,7,4,7,,,64,male,,3,Die Linke,,5,5,,,,,,,,,,,,,,,1,symmetric,9,21,NSQ,RAND,101,-9,0,0,0,0,.5,0,NSQ vs. RAND,negative,,,0,3,1_1,1,0,0,1,Value -3,1,,,1,0,symmetric,1,,0,,,3,,0
141210_1516,10,1,2,.038917828,.75782681,3,-10,-30,NSQ,NSQ,2,-1,0,0,-2,-1,-1,-1,-1,-1,-1,-1,-1,-1,,1,29,,,39,0,0,-10,-10,0,0,,25,,2,1,2,.14467295,3,,1,3,-3,-1,1,6,7,4,7,6,7,,,64,male,,3,Die Linke,,5,5,,,,,,,,,,,,,,,1,symmetric,9,21,RAND,NSQ,101,-1,0,0,0,0,.5,0,NSQ vs. RAND,positive,,,0,2,1_1,0,1,1,0,Value 3,1,,,1,0,symmetric,1,,1,,,3,,1
141210_1516,5,1,3,.16786626,.94770414,3,-10,-30,RAND,RAND,2,-1,0,0,-2,-1,-1,-1,-1,-1,-1,-1,-1,-1,,1,33,,,0,33,1,-10,-10,1,3,,3,,2,1,2,.8164432,3,,1,3,3,3,1,8,9,4,9,8,9,,,64,male,,3,Die Linke,,5,5,,,,,,,,,,,,,,,1,symmetric,9,21,NSQ,RAND,101,9,1,1,1,0,.5,.5,NSQ vs. RAND,positive,,,0,1,1_1,0,1,1,0,Value 3,0,,,0,1,symmetric,1,,1,,,3,,0
141210_1516,13,2,1,.96127844,.35984305,-1,-1,5,AGV,AGV,2,-1,0,.25,1,-1,-1,-1,-1,-1,-1,-1,-1,-1,,0,22,36,0,,,1,3,3,1,-.75,,18,,2,1,2,.0069165938,1,102,1,-1,1,3,2,4,7,4,7,4,7,,,26,male,,4,Die Linke,,2,6,,,,,,,,,,,,,,,1,symmetric,9,21,SM,AGV,102,3,1,1,1,0,.5,1,AGV vs. SM,negative,1,1,1,3,1_1,1,0,0,1,Value -1,1,1,0,,,symmetric,1,1,0,0,,1,,1
141210_1516,9,2,1,.35538566,.58409488,1,-10,-30,SM,AGV,1,Yes,2,0,-2,-1,-1,-1,-1,-1,-1,-1,-1,-1,,1,28,0,36,,,1,-10,-10,1,1,,23,,2,1,2,.075823888,2,,1,-1,1,3,1,2,4,4,4,1,4,,,26,male,,4,Die Linke,,2,6,,,,,,,,,,,,,,,1,symmetric,9,21,AGV,SM,102,3,1,1,1,0,.5,1,AGV vs. SM,positive,,,1,2,1_1,0,1,1,0,Value 1,1,1,0,,,symmetric,1,1,1,,,1,,0
141210_1516,1,2,2,.80467045,.43985426,-1,-1,-5,AGV,SM,1,-1,0,.125,-1,-1,-1,-1,-1,-1,-1,-1,1,-1,,0,25,10,0,,,1,-1,-3,0,.125,,19,,2,1,2,.29153389,2,,1,-1,-1,-1,2,5,7,4,7,5,7,,,26,male,,4,Die Linke,,2,6,,,,,,,,,,,,,,,1,symmetric,9,21,SM,AGV,102,-3,0,0,0,0,.5,0,AGV vs. SM,negative,1,1,1,1,1_1,0,1,0,1,Value -1,0,0,1,,,symmetric,0,0,1,,,1,,1
141210_1516,16,2,1,.56806189,.92955434,3,3,-3,AGV,AGV,2,-1,0,0,-1,-1,-1,-1,-1,-1,-1,-1,-1,1,,1,34,36,,0,,0,-3,-3,0,0,,17,,2,1,2,.065929361,1,,1,3,-3,-3,2,7,8,4,8,7,8,,,26,male,,4,Die Linke,,2,6,,,,,,,,,,,,,,,1,symmetric,9,21,NSQ,AGV,102,-3,0,0,0,0,.5,0,AGV vs. NSQ,positive,1,1,1,3,1_1,1,0,1,0,Value 3,1,1,,0,,symmetric,1,1,0,,,3,,1
141210_1516,8,2,1,.084953167,.30675998,-1,-10,-30,NSQ,AGV,1,-1,0,0,-2,-1,-1,-1,-1,-1,-1,-1,-1,-1,,0,35,0,,36,,0,-10,-10,0,0,,20,,2,1,2,.16070382,3,,1,-1,1,1,2,4,9,4,9,4,9,,,26,male,,4,Die Linke,,2,6,,,,,,,,,,,,,,,1,symmetric,9,21,AGV,NSQ,102,1,1,1,1,0,.5,1,AGV vs. NSQ,negative,,,1,2,1_1,0,1,0,1,Value -1,1,1,,0,,symmetric,1,1,1,,,1,,0
141210_1516,4,2,2,.99997956,.89989489,3,3,1,AGV,AGV,2,-1,0,-.125,-1,-1,-1,-1,-1,-1,1,-1,-1,-1,,1,35,32,,0,,0,-3,1,1,2.875,,19,,2,1,2,.28923914,1,,1,3,-3,1,2,5,6,4,6,5,6,,,26,male,,4,Die Linke,,2,6,,,,,,,,,,,,,,,1,symmetric,9,21,NSQ,AGV,102,1,1,1,1,0,.5,1,AGV vs. NSQ,positive,1,1,1,1,1_1,0,1,1,0,Value 3,1,1,,0,,symmetric,1,1,1,,,3,,1
141210_1516,15,2,2,.81029099,.87164903,3,-10,-30,RAND,AGV,1,-1,0,0,-2,-1,-1,-1,-1,-1,-1,-1,-1,-1,,1,33,0,,,35,1,-10,-10,1,3,,23,,2,1,2,.32169089,2,,1,3,1,-1,2,4,6,4,6,4,6,,,26,male,,4,Die Linke,,2,6,,,,,,,,,,,,,,,1,symmetric,9,21,AGV,RAND,102,3,1,1,1,0,.5,1,AGV vs. RAND,positive,,,1,3,1_1,1,0,1,0,Value 3,1,1,,,0,symmetric,1,1,0,,,3,,0
141210_1516,3,2,1,.80986536,.30195346,-1,-1,3,AGV,AGV,1,-1,0,.125,-1,1,-1,-1,-1,-1,-1,-1,-1,-1,,0,35,30,,,0,1,1,3,1,-.875,,13,,2,1,2,.20096545,1,,1,-1,-1,3,2,8,9,4,9,8,9,,,26,male,,4,Die Linke,,2,6,,,,,,,,,,,,,,,1,symmetric,9,21,AGV,RAND,102,1,1,1,0,0,.5,1,AGV vs. RAND,negative,1,1,1,1,1_1,0,1,0,1,Value -1,1,1,,,0,symmetric,1,1,1,,,1,,0
141210_1516,11,2,1,.64888674,.92286557,3,3,3,AGV,AGV,2,-1,0,-.25,-1,-1,-1,-1,-1,1,-1,-1,-1,-1,,1,35,34,,,0,1,1,-1,1,2.75,,19,,2,1,2,.34810722,1,,1,3,3,-1,1,2,6,4,6,1,6,,,26,male,,4,Die Linke,,2,6,,,,,,,,,,,,,,,1,symmetric,9,21,RAND,AGV,102,5,1,1,1,0,.5,1,AGV vs. RAND,positive,1,1,1,2,1_1,0,1,1,0,Value 3,1,1,,,0,symmetric,1,1,1,,,3,,1
141210_1516,18,2,1,.68681443,.47894007,-1,-10,-30,NSQ,NSQ,2,-1,0,0,-2,-1,-1,-1,-1,-1,-1,-1,-1,-1,,0,35,,0,38,,0,-10,-10,0,0,9,25,,2,1,2,.17592672,1,,1,-1,3,1,2,7,8,4,8,7,8,7,21,26,male,,4,Die Linke,,2,6,,,,,,,,,,,,,,,1,symmetric,9,21,SM,NSQ,102,3,1,1,1,0,.5,0,SM vs. NSQ,negative,,,1,3,1_1,1,0,0,1,Value -1,0,,0,1,,symmetric,0,0,0,,,1,,0
141210_1516,6,2,1,.11528043,.82763958,3,-10,-30,SM,SM,1,Yes,2,0,-2,-1,-1,-1,-1,-1,-1,-1,-1,-1,,1,35,,36,,,0,-10,-10,1,3,,21,,2,1,2,.082586236,2,,1,-1,3,-3,1,2,5,4,5,1,5,,,26,male,,4,Die Linke,,2,6,,,,,,,,,,,,,,,1,symmetric,9,21,SM,NSQ,102,-1,0,0,0,0,.5,0,SM vs. NSQ,positive,,,1,1,1_1,0,1,1,0,Value 3,1,,1,0,,symmetric,1,1,1,,,3,,0
141210_1516,12,2,1,.38093618,.78875804,3,-10,-30,SM,SM,2,Yes,3,0,-2,-1,-1,-1,-1,-1,-1,-1,-1,-1,,1,36,,38,,,0,-10,-10,1,3,,23,,2,1,2,.20734151,3,,1,3,3,3,2,7,9,4,9,7,9,,,26,male,,4,Die Linke,,2,6,,,,,,,,,,,,,,,1,symmetric,9,21,NSQ,SM,102,9,1,1,1,0,.5,1,SM vs. NSQ,positive,,,1,2,1_1,0,1,1,0,Value 3,1,,1,0,,symmetric,1,1,1,,,3,,1
141210_1516,14,2,3,.069784306,.28470981,-1,-10,-30,SM,SM,1,No,1,0,-2,-1,-1,-1,-1,-1,-1,-1,-1,-1,,0,30,,38,,0,0,-10,-10,0,0,,23,,2,1,2,.95753247,3,,1,3,-1,1,1,2,7,4,7,1,7,,,26,male,,4,Die Linke,,2,6,,,,,,,,,,,,,,,1,symmetric,9,21,SM,RAND,102,3,1,1,1,0,.5,1,SM vs. RAND,negative,,,1,3,1_1,1,0,0,1,Value -1,1,,1,,0,symmetric,1,1,0,,,1,,0
141210_1516,2,2,1,.32354537,.49065003,-1,-10,-30,SM,SM,1,No,1,0,-2,-1,-1,-1,-1,-1,-1,-1,-1,-1,,0,35,,35,,0,0,-10,-10,0,0,,21,,2,1,2,.21522413,3,,1,3,-1,1,1,2,9,4,9,1,9,,,26,male,,4,Die Linke,,2,6,,,,,,,,,,,,,,,1,symmetric,9,21,SM,RAND,102,3,1,1,1,0,.5,1,SM vs. RAND,negative,,,1,1,1_1,0,1,0,1,Value -1,1,,1,,0,symmetric,1,1,1,,,1,,0
141210_1516,7,2,3,.9937554,.45746851,-1,-10,-30,SM,SM,2,No,1,0,-2,-1,-1,-1,-1,-1,-1,-1,-1,-1,,0,29,,35,,0,1,-10,-10,0,0,,20,,2,1,2,.89612764,1,,1,-1,-1,3,2,4,9,4,9,4,9,,,26,male,,4,Die Linke,,2,6,,,,,,,,,,,,,,,1,symmetric,9,21,RAND,SM,102,1,1,1,0,0,.5,0,SM vs. RAND,negative,,,1,2,1_1,0,1,0,1,Value -1,1,,1,,0,symmetric,1,1,1,,,1,,1
141210_1516,17,2,1,.87356663,.87802035,3,-10,-30,RAND,RAND,2,-1,0,0,-2,-1,-1,-1,-1,-1,-1,-1,-1,-1,,1,35,,,0,39,0,-10,-10,0,0,,24,,2,1,2,.59717762,1,,1,3,-3,1,2,6,8,4,8,6,8,,,26,male,,4,Die Linke,,2,6,,,,,,,,,,,,,,,1,symmetric,9,21,NSQ,RAND,102,1,1,1,1,0,.5,.5,NSQ vs. RAND,positive,,,1,3,1_1,1,0,1,0,Value 3,0,,,0,1,symmetric,1,,0,,,3,,0
141210_1516,5,2,1,.8368786,.14675814,-3,-10,-30,NSQ,NSQ,1,-1,0,0,-2,-1,-1,-1,-1,-1,-1,-1,-1,-1,,0,28,,,36,0,1,-10,-10,0,0,,22,,2,1,2,.16710742,1,,1,-3,-1,1,2,4,6,4,6,4,6,,,26,male,,4,Die Linke,,2,6,,,,,,,,,,,,,,,1,symmetric,9,21,NSQ,RAND,102,-3,0,0,0,0,.5,0,NSQ vs. RAND,negative,,,1,1,1_1,0,1,0,1,Value -3,1,,,1,0,symmetric,1,,1,,,3,,0
141210_1516,10,2,1,.033343971,.10172337,-3,-10,-30,NSQ,NSQ,2,-1,0,0,-2,-1,-1,-1,-1,-1,-1,-1,-1,-1,,0,34,,,39,0,1,-10,-10,0,0,,24,,2,1,2,.082348622,3,,1,-3,3,-3,2,3,4,4,4,3,4,,,26,male,,4,Die Linke,,2,6,,,,,,,,,,,,,,,1,symmetric,9,21,RAND,NSQ,102,-3,0,0,0,0,.5,0,NSQ vs. RAND,negative,,,1,2,1_1,0,1,0,1,Value -3,1,,,1,0,symmetric,1,,1,,,3,,1
141210_1516,13,3,2,.21650632,.25370082,-1,-10,-30,SM,SM,1,No,2,0,-2,-1,-1,-1,-1,-1,-1,-1,-1,-1,,0,9,0,35,,,1,-10,-10,1,-1,,20,,2,1,2,.55417299,3,90,1,1,-1,3,1,3,8,4,8,1,8,,,19,male,,6,FDP,,3,4,,,,,,,,,,,,,,,1,symmetric,9,21,SM,AGV,103,3,1,1,1,0,.5,1,AGV vs. SM,negative,,,1,3,1_1,1,0,0,1,Value -1,0,0,1,,,symmetric,0,0,0,0,,1,,1
141210_1516,1,3,1,.25368947,.69347477,1,3,9,AGV,SM,1,-1,0,0,1,-1,-1,-1,-1,-1,-1,-1,-1,-1,,1,5,18,0,,,0,3,3,1,1,,2,,2,1,2,.17466381,2,,1,-3,1,3,1,3,4,4,4,1,4,,,19,male,,6,FDP,,3,4,,,,,,,,,,,,,,,1,symmetric,9,21,SM,AGV,103,1,1,1,1,0,.5,1,AGV vs. SM,positive,0,1,1,1,1_1,0,1,1,0,Value 1,0,0,1,,,symmetric,0,0,0,,,1,,1
141210_1516,9,3,2,.3431665,.48640752,-1,-3,-7,AGV,SM,2,-1,0,-.125,-1,-1,-1,-1,-1,-1,-1,-1,1,-1,,0,31,35,0,,,1,-3,-1,0,-.125,,20,,2,1,2,.50482893,2,,1,-1,-3,-1,3,5,6,4,6,5,6,,,19,male,,6,FDP,,3,4,,,,,,,,,,,,,,,1,symmetric,9,21,AGV,SM,103,-5,0,0,0,0,.5,0,AGV vs. SM,negative,0,1,1,2,1_1,0,1,0,1,Value -1,0,0,1,,,symmetric,0,0,0,,,1,,0
141210_1516,16,3,3,.81438369,.51276064,1,3,7,AGV,AGV,2,-1,0,-.125,-1,1,-1,-1,-1,-1,-1,-1,-1,-1,,1,30,27,,0,,1,3,1,1,.875,,16,,2,1,2,.99226093,3,,1,-1,1,1,1,3,9,4,9,1,9,,,19,male,,6,FDP,,3,4,,,,,,,,,,,,,,,1,symmetric,9,21,NSQ,AGV,103,1,1,1,1,0,.5,1,AGV vs. NSQ,positive,0,1,1,3,1_1,1,0,1,0,Value 1,1,1,,0,,symmetric,1,1,0,,,1,,1
141210_1516,4,3,3,.018832587,.95550495,3,3,3,AGV,AGV,2,-1,0,0,-1,-1,-1,1,-1,-1,-1,-1,-1,-1,,1,25,33,,0,,1,3,-3,1,3,,20,,2,1,2,.79732966,3,,1,3,3,-1,3,8,9,4,9,8,9,,,19,male,,6,FDP,,3,4,,,,,,,,,,,,,,,1,symmetric,9,21,NSQ,AGV,103,5,1,1,1,0,.5,1,AGV vs. NSQ,positive,1,1,1,1,1_1,0,1,1,0,Value 3,1,1,,0,,symmetric,1,1,1,,,3,,1
141210_1516,8,3,2,.9952991,.92034173,3,3,5,AGV,AGV,1,-1,0,-.125,-1,-1,1,-1,-1,-1,-1,-1,-1,-1,,1,29,38,,0,,0,-1,3,1,2.875,,22,,2,1,2,.80786294,1,,1,3,-1,3,3,6,7,4,7,6,7,,,19,male,,6,FDP,,3,4,,,,,,,,,,,,,,,1,symmetric,9,21,AGV,NSQ,103,5,1,1,1,0,.5,1,AGV vs. NSQ,positive,1,1,1,2,1_1,0,1,1,0,Value 3,1,1,,0,,symmetric,1,1,1,,,3,,0
141210_1516,15,3,1,.72392076,.73580241,1,3,3,AGV,AGV,1,-1,0,0,-1,-1,-1,1,-1,-1,-1,-1,-1,-1,,1,28,38,,,0,0,3,-3,1,1,,20,,2,1,2,.1289033,1,,1,1,1,-1,1,3,9,4,9,1,9,,,19,male,,6,FDP,,3,4,,,,,,,,,,,,,,,1,symmetric,9,21,AGV,RAND,103,1,1,1,1,0,.5,1,AGV vs. RAND,positive,0,1,1,3,1_1,1,0,1,0,Value 1,1,1,,,0,symmetric,1,1,0,,,1,,0
141210_1516,11,3,2,.99823213,.98070753,3,3,-3,AGV,AGV,2,-1,0,0,-1,-1,-1,-1,-1,-1,-1,-1,-1,1,,1,33,38,,,0,1,-3,-3,0,0,,13,,2,1,2,.37736231,1,,1,3,-1,-3,3,4,7,4,7,4,7,,,19,male,,6,FDP,,3,4,,,,,,,,,,,,,,,1,symmetric,9,21,RAND,AGV,103,-1,0,0,0,0,.5,0,AGV vs. RAND,positive,1,1,1,2,1_1,0,1,1,0,Value 3,1,1,,,0,symmetric,1,1,1,,,3,,1
141210_1516,3,3,2,.76814419,.71311176,1,-10,-30,RAND,AGV,1,-1,0,0,-2,-1,-1,-1,-1,-1,-1,-1,-1,-1,,1,11,0,,,25,0,-10,-10,0,0,,-34,,2,1,2,.48698446,2,,1,1,1,3,1,3,6,4,6,1,6,,,19,male,,6,FDP,,3,4,,,,,,,,,,,,,,,1,symmetric,9,21,AGV,RAND,103,5,1,1,1,0,.5,1,AGV vs. RAND,positive,,,1,1,1_1,0,1,1,0,Value 1,1,1,,,0,symmetric,1,1,1,,,1,,0
141210_1516,18,3,3,.30591965,.27344188,-1,-10,-30,SM,NSQ,2,No,2,0,-2,-1,-1,-1,-1,-1,-1,-1,-1,-1,,0,29,,37,0,,0,-10,-10,1,-1,9,23,,2,1,2,.85895872,3,,1,1,-1,1,1,3,5,4,5,1,5,7,20,19,male,,6,FDP,,3,4,,,,,,,,,,,,,,,1,symmetric,9,21,SM,NSQ,103,1,1,1,1,0,.5,0,SM vs. NSQ,negative,,,1,3,1_1,1,0,0,1,Value -1,0,,0,1,,symmetric,0,0,0,,,1,,0
141210_1516,12,3,3,.1403297,.40674037,-1,-10,-30,SM,SM,2,No,0,0,-2,-1,-1,-1,-1,-1,-1,-1,-1,-1,,0,36,,35,,,1,-10,-10,0,0,,23,,2,1,2,.78405416,3,,1,-3,-1,-1,1,3,6,4,6,1,6,,,19,male,,6,FDP,,3,4,,,,,,,,,,,,,,,1,symmetric,9,21,NSQ,SM,103,-5,0,0,0,0,.5,0,SM vs. NSQ,negative,,,1,2,1_1,0,1,0,1,Value -1,1,,1,0,,symmetric,1,1,1,,,1,,1
141210_1516,6,3,3,.15610482,.24534184,-3,-10,-30,SM,SM,1,No,1,0,-2,-1,-1,-1,-1,-1,-1,-1,-1,-1,,0,27,,37,,,0,-10,-10,0,0,,19,,2,1,2,.75237286,3,,1,-3,1,-1,3,4,6,4,6,4,6,,,19,male,,6,FDP,,3,4,,,,,,,,,,,,,,,1,symmetric,9,21,SM,NSQ,103,-3,0,0,0,0,.5,0,SM vs. NSQ,negative,,,1,1,1_1,0,1,0,1,Value -3,1,,1,0,,symmetric,1,1,1,,,3,,0
141210_1516,14,3,2,.3880457,.30227938,-1,-10,-30,SM,SM,1,No,2,0,-2,-1,-1,-1,-1,-1,-1,-1,-1,-1,,0,29,,38,,0,1,-10,-10,1,-1,,20,,2,1,2,.67868555,2,,1,-1,3,3,3,4,8,4,8,4,8,,,19,male,,6,FDP,,3,4,,,,,,,,,,,,,,,1,symmetric,9,21,SM,RAND,103,5,1,1,1,0,.5,1,SM vs. RAND,negative,,,1,3,1_1,1,0,0,1,Value -1,1,,1,,0,symmetric,1,1,0,,,1,,0
141210_1516,2,3,3,.86154288,.66959584,1,-10,-30,SM,SM,1,Yes,1,0,-2,-1,-1,-1,-1,-1,-1,-1,-1,-1,,1,35,,33,,0,1,-10,-10,0,0,,12,,2,1,2,.91168708,1,,1,1,-1,-1,3,5,7,4,7,5,7,,,19,male,,6,FDP,,3,4,,,,,,,,,,,,,,,1,symmetric,9,21,SM,RAND,103,-1,0,0,0,0,.5,0,SM vs. RAND,positive,,,1,1,1_1,0,1,1,0,Value 1,1,,1,,0,symmetric,1,1,1,,,1,,0
141210_1516,7,3,1,.44417888,.85363328,3,-10,-30,RAND,SM,2,-1,0,0,-2,-1,-1,-1,-1,-1,-1,-1,-1,-1,,1,29,,0,,36,0,-10,-10,1,3,,24,,2,1,2,.010182519,3,,1,3,1,1,3,5,7,4,7,5,7,,,19,male,,6,FDP,,3,4,,,,,,,,,,,,,,,1,symmetric,9,21,RAND,SM,103,5,1,1,1,0,.5,1,SM vs. RAND,positive,,,1,2,1_1,0,1,1,0,Value 3,1,,1,,0,symmetric,1,1,1,,,3,,1
141210_1516,17,3,2,.59362984,.86246485,3,-10,-30,RAND,RAND,2,-1,0,0,-2,-1,-1,-1,-1,-1,-1,-1,-1,-1,,1,31,,,0,39,0,-10,-10,0,0,,23,,2,1,2,.73538357,3,,1,3,3,1,3,5,9,4,9,5,9,,,19,male,,6,FDP,,3,4,,,,,,,,,,,,,,,1,symmetric,9,21,NSQ,RAND,103,7,1,1,1,0,.5,.5,NSQ vs. RAND,positive,,,1,3,1_1,1,0,1,0,Value 3,0,,,0,1,symmetric,1,,0,,,3,,0
141210_1516,10,3,1,.64042348,.9229548,3,-10,-30,NSQ,NSQ,2,-1,0,0,-2,-1,-1,-1,-1,-1,-1,-1,-1,-1,,1,26,,,37,0,1,-10,-10,0,0,,23,,2,1,2,.035321023,2,,1,-3,3,-3,2,3,4,4,4,2,4,,,19,male,,6,FDP,,3,4,,,,,,,,,,,,,,,1,symmetric,9,21,RAND,NSQ,103,-3,0,0,0,0,.5,0,NSQ vs. RAND,positive,,,1,2,1_1,0,1,1,0,Value 3,1,,,1,0,symmetric,1,,1,,,3,,1
141210_1516,5,3,2,.31605712,.06381873,-3,-10,-30,NSQ,RAND,2,-1,0,0,-2,-1,-1,-1,-1,-1,-1,-1,-1,-1,,0,19,,,35,0,1,-10,-10,0,0,,21,,2,1,2,.51968151,2,,1,-3,3,-1,3,5,7,4,7,5,7,,,19,male,,6,FDP,,3,4,,,,,,,,,,,,,,,1,symmetric,9,21,NSQ,RAND,103,-1,0,0,0,0,.5,.5,NSQ vs. RAND,negative,,,1,1,1_1,0,1,0,1,Value -3,0,,,0,1,symmetric,1,,1,,,3,,0
141210_1516,13,4,1,.050059758,.66198558,1,3,5,AGV,AGV,2,-1,0,-.125,-1,-1,1,-1,-1,-1,-1,-1,-1,-1,,1,29,38,0,,,1,-1,3,1,.875,,21,,2,1,2,.37521046,3,106,1,-1,1,3,2,4,7,4,7,2,7,,,25,female,,8,Nichtwähler,,3,8,,,,,,,,,,,,,,,1,symmetric,9,21,SM,AGV,104,3,1,1,1,0,.5,1,AGV vs. SM,positive,0,1,1,3,1_1,1,0,1,0,Value 1,1,1,0,,,symmetric,1,1,0,0,,1,,1
141210_1516,9,4,1,.17836197,.96450806,3,-10,-30,SM,SM,2,Yes,2,0,-2,-1,-1,-1,-1,-1,-1,-1,-1,-1,,1,32,0,33,,,1,-10,-10,1,3,,23,,2,1,2,.021904793,3,,1,-1,1,3,1,2,4,4,2,1,2,,,25,female,,8,Nichtwähler,,3,8,,,,,,,,,,,,,,,1,symmetric,9,21,AGV,SM,104,3,1,1,1,0,.5,1,AGV vs. SM,positive,,,1,2,1_1,0,1,1,0,Value 3,0,0,1,,,symmetric,0,0,0,,,3,,0
141210_1516,1,4,1,.089805126,.79003048,3,3,9,AGV,AGV,2,-1,0,0,1,-1,-1,-1,-1,-1,-1,-1,-1,-1,,1,28,33,0,,,1,3,3,1,3,,12,,2,1,2,.10601617,3,,1,-3,1,3,1,3,4,4,3,1,3,,,25,female,,8,Nichtwähler,,3,8,,,,,,,,,,,,,,,1,symmetric,9,21,SM,AGV,104,1,1,1,1,0,.5,1,AGV vs. SM,positive,1,1,1,1,1_1,0,1,1,0,Value 3,1,1,0,,,symmetric,1,1,0,,,3,,1
141210_1516,16,4,2,.28707638,.027344571,-3,-10,-30,NSQ,NSQ,1,-1,0,0,-2,-1,-1,-1,-1,-1,-1,-1,-1,-1,,0,29,0,,38,,0,-10,-10,0,0,,24,,2,1,2,.56161368,3,,1,-3,-3,-1,4,5,6,4,6,5,6,,,25,female,,8,Nichtwähler,,3,8,,,,,,,,,,,,,,,1,symmetric,9,21,NSQ,AGV,104,-7,0,0,0,0,.5,0,AGV vs. NSQ,negative,,,1,3,1_1,1,0,0,1,Value -3,0,0,,1,,symmetric,0,0,0,,,3,,1
141210_1516,4,4,1,.82037503,.54360074,1,3,5,AGV,NSQ,1,-1,0,-.25,-1,-1,-1,-1,1,-1,-1,-1,-1,-1,,1,32,24,,0,,0,1,1,1,.75,,14,,2,1,2,.17702679,3,,1,-3,1,1,1,4,7,4,7,1,7,,,25,female,,8,Nichtwähler,,3,8,,,,,,,,,,,,,,,1,symmetric,9,21,NSQ,AGV,104,-1,0,0,1,0,.5,0,AGV vs. NSQ,positive,0,1,1,1,1_1,0,1,1,0,Value 1,0,0,,1,,symmetric,0,0,0,,,1,,1
141210_1516,8,4,1,.36229578,.64934814,1,-10,-30,NSQ,NSQ,2,-1,0,0,-2,-1,-1,-1,-1,-1,-1,-1,-1,-1,,1,35,0,,38,,1,-10,-10,0,0,,24,,2,1,2,.27005869,1,,1,-1,1,1,2,4,9,4,9,2,9,,,25,female,,8,Nichtwähler,,3,8,,,,,,,,,,,,,,,1,symmetric,9,21,AGV,NSQ,104,1,1,1,1,0,.5,0,AGV vs. NSQ,positive,,,1,2,1_1,0,1,1,0,Value 1,0,0,,1,,symmetric,0,0,0,,,1,,0
141210_1516,15,4,2,.82084447,.67285222,1,-10,-30,RAND,RAND,2,-1,0,0,-2,-1,-1,-1,-1,-1,-1,-1,-1,-1,,1,37,0,,,38,1,-10,-10,1,1,,24,,2,1,2,.62725919,1,,1,3,1,-1,2,4,6,4,6,2,6,,,25,female,,8,Nichtwähler,,3,8,,,,,,,,,,,,,,,1,symmetric,9,21,AGV,RAND,104,3,1,1,1,0,.5,.5,AGV vs. RAND,positive,,,1,3,1_1,1,0,1,0,Value 1,0,0,,,1,symmetric,0,0,0,,,1,,0
141210_1516,11,4,2,.099677555,.26433688,-1,-3,-3,AGV,AGV,2,-1,0,0,-1,-1,-1,1,-1,-1,-1,-1,-1,-1,,0,32,28,,,0,0,3,-3,0,0,,22,,2,1,2,.5518828,3,,1,3,-1,-3,3,4,7,4,7,3,7,,,25,female,,8,Nichtwähler,,3,8,,,,,,,,,,,,,,,1,symmetric,9,21,RAND,AGV,104,-1,0,0,0,0,.5,0,AGV vs. RAND,negative,0,1,1,2,1_1,0,1,0,1,Value -1,1,1,,,0,symmetric,1,1,1,,,1,,1
141210_1516,3,4,3,.23674564,.70934033,1,1,5,AGV,RAND,2,-1,0,.125,-1,1,-1,-1,-1,-1,-1,-1,-1,-1,,1,34,34,,,0,1,3,1,1,1.125,,16,,2,1,2,.80753541,3,,1,1,3,1,4,5,7,4,7,5,7,,,25,female,,8,Nichtwähler,,3,8,,,,,,,,,,,,,,,1,symmetric,9,21,AGV,RAND,104,5,1,1,1,0,.5,.5,AGV vs. RAND,positive,1,1,1,1,1_1,0,1,1,0,Value 1,0,0,,,1,symmetric,0,0,1,,,1,,0
141210_1516,18,4,2,.7224828,.21590073,-3,-10,-30,NSQ,NSQ,2,-1,0,0,-2,-1,-1,-1,-1,-1,-1,-1,-1,-1,,0,33,,0,39,,1,-10,-10,0,0,9,25,,2,1,2,.7535705,2,,1,-3,-1,-3,4,6,9,4,9,6,9,7,23,25,female,,8,Nichtwähler,,3,8,,,,,,,,,,,,,,,1,symmetric,9,21,SM,NSQ,104,-7,0,0,0,0,.5,0,SM vs. NSQ,negative,,,1,3,1_1,1,0,0,1,Value -3,0,,0,1,,symmetric,0,0,0,,,3,,0
141210_1516,12,4,2,.65617216,.52129185,1,-10,-30,SM,SM,2,Yes,2,0,-2,-1,-1,-1,-1,-1,-1,-1,-1,-1,,1,36,,38,,,0,-10,-10,1,1,,24,,2,1,2,.6413303,2,,1,1,3,-3,4,5,8,4,8,5,8,,,25,female,,8,Nichtwähler,,3,8,,,,,,,,,,,,,,,1,symmetric,9,21,NSQ,SM,104,1,1,1,1,0,.5,1,SM vs. NSQ,positive,,,1,2,1_1,0,1,1,0,Value 1,1,,1,0,,symmetric,1,1,1,,,1,,1
141210_1516,6,4,3,.84459543,.52465409,1,-10,-30,SM,SM,1,Yes,1,0,-2,-1,-1,-1,-1,-1,-1,-1,-1,-1,,1,33,,38,,,0,-10,-10,0,0,,23,,2,1,2,.81579727,1,,1,-3,1,-1,3,4,6,4,6,3,6,,,25,female,,8,Nichtwähler,,3,8,,,,,,,,,,,,,,,1,symmetric,9,21,SM,NSQ,104,-3,0,0,0,0,.5,0,SM vs. NSQ,positive,,,1,1,1_1,0,1,1,0,Value 1,1,,1,0,,symmetric,1,1,1,,,1,,0
141210_1516,14,4,2,.91012233,.87176049,3,-10,-30,SM,SM,1,Yes,2,0,-2,-1,-1,-1,-1,-1,-1,-1,-1,-1,,1,34,,38,,0,1,-10,-10,1,3,,24,,2,1,2,.60785878,1,,1,-1,3,3,3,4,8,4,8,3,8,,,25,female,,8,Nichtwähler,,3,8,,,,,,,,,,,,,,,1,symmetric,9,21,SM,RAND,104,5,1,1,1,0,.5,1,SM vs. RAND,positive,,,1,3,1_1,1,0,1,0,Value 3,1,,1,,0,symmetric,1,1,0,,,3,,0
141210_1516,7,4,3,.20765233,.31281534,-1,-10,-30,SM,RAND,1,No,1,0,-2,-1,-1,-1,-1,-1,-1,-1,-1,-1,,0,32,,36,,0,0,-10,-10,0,0,,24,,2,1,2,.79215419,3,,1,-1,-1,3,2,4,9,4,9,2,9,,,25,female,,8,Nichtwähler,,3,8,,,,,,,,,,,,,,,1,symmetric,9,21,RAND,SM,104,1,1,1,0,0,.5,.5,SM vs. RAND,negative,,,1,2,1_1,0,1,0,1,Value -1,0,,0,,1,symmetric,0,0,0,,,1,,1
141210_1516,2,4,2,.97439408,.97402471,3,-10,-30,SM,SM,1,Yes,2,0,-2,-1,-1,-1,-1,-1,-1,-1,-1,-1,,1,34,,37,,0,1,-10,-10,1,3,,20,,2,1,2,.42001638,2,,1,3,-3,1,4,6,8,4,8,6,8,,,25,female,,8,Nichtwähler,,3,8,,,,,,,,,,,,,,,1,symmetric,9,21,SM,RAND,104,1,1,1,1,0,.5,1,SM vs. RAND,positive,,,1,1,1_1,0,1,1,0,Value 3,1,,1,,0,symmetric,1,1,0,,,3,,0
141210_1516,17,4,3,.44541612,.13827264,-3,-10,-30,NSQ,NSQ,1,-1,0,0,-2,-1,-1,-1,-1,-1,-1,-1,-1,-1,,0,34,,,39,0,0,-10,-10,0,0,,24,,2,1,2,.93986541,3,,1,-3,-3,-3,1,4,7,4,7,1,7,,,25,female,,8,Nichtwähler,,3,8,,,,,,,,,,,,,,,1,symmetric,9,21,NSQ,RAND,104,-9,0,0,0,0,.5,0,NSQ vs. RAND,negative,,,1,3,1_1,1,0,0,1,Value -3,1,,,1,0,symmetric,1,,0,,,3,,0
141210_1516,5,4,1,.326125,.28328201,-1,-10,-30,NSQ,NSQ,1,-1,0,0,-2,-1,-1,-1,-1,-1,-1,-1,-1,-1,,0,33,,,36,0,0,-10,-10,0,0,,24,,2,1,2,.039974216,2,,1,-3,-1,1,2,4,6,4,6,2,6,,,25,female,,8,Nichtwähler,,3,8,,,,,,,,,,,,,,,1,symmetric,9,21,NSQ,RAND,104,-3,0,0,0,0,.5,0,NSQ vs. RAND,negative,,,1,1,1_1,0,1,0,1,Value -1,1,,,1,0,symmetric,1,,1,,,1,,0
141210_1516,10,4,1,.89303696,.0072675035,-3,-10,-30,NSQ,NSQ,2,-1,0,0,-2,-1,-1,-1,-1,-1,-1,-1,-1,-1,,0,32,,,37,0,0,-10,-10,0,0,,24,,2,1,2,.091957055,1,,1,-3,3,-3,2,3,4,4,3,2,3,,,25,female,,8,Nichtwähler,,3,8,,,,,,,,,,,,,,,1,symmetric,9,21,RAND,NSQ,104,-3,0,0,0,0,.5,0,NSQ vs. RAND,negative,,,1,2,1_1,0,1,0,1,Value -3,1,,,1,0,symmetric,1,,1,,,3,,1
141210_1516,13,5,3,.30838111,.73480684,1,1,3,AGV,SM,1,-1,0,.125,-1,-1,1,-1,-1,-1,-1,-1,-1,-1,,1,23,34,0,,,0,-1,3,1,1.125,,23,,2,1,2,.88204461,3,105,1,1,-1,3,5,6,9,4,9,6,9,,,26,male,,2,Sonstige,,5,8,,,,,,,,,,,,,,,1,symmetric,9,21,SM,AGV,105,3,1,1,1,0,.5,1,AGV vs. SM,positive,1,1,1,3,1_1,1,0,1,0,Value 1,0,0,1,,,symmetric,0,0,0,0,,1,,1
141210_1516,1,5,2,.95589727,.4033722,-1,-1,-5,AGV,AGV,2,-1,0,.125,-1,-1,-1,-1,-1,-1,-1,-1,1,-1,,0,20,22,0,,,1,-1,-3,0,.125,,16,,2,1,2,.35741907,1,,1,-1,-1,-1,2,5,7,4,7,2,7,,,26,male,,2,Sonstige,,5,8,,,,,,,,,,,,,,,1,symmetric,9,21,SM,AGV,105,-3,0,0,0,0,.5,0,AGV vs. SM,negative,1,1,1,1,1_1,0,1,0,1,Value -1,1,1,0,,,symmetric,1,1,1,,,1,,1
141210_1516,9,5,2,.84733075,.051110551,-3,-3,-7,AGV,AGV,1,-1,0,-.125,-1,-1,-1,-1,-1,-1,-1,-1,1,-1,,0,35,34,0,,,1,-3,-1,0,-.125,,21,,2,1,2,.38511452,1,,1,-1,-3,-1,3,5,6,4,6,3,6,,,26,male,,2,Sonstige,,5,8,,,,,,,,,,,,,,,1,symmetric,9,21,AGV,SM,105,-5,0,0,0,0,.5,0,AGV vs. SM,negative,1,1,1,2,1_1,0,1,0,1,Value -3,1,1,0,,,symmetric,1,1,1,,,3,,0
141210_1516,16,5,2,.97887945,.012765654,-3,-10,-30,NSQ,NSQ,1,-1,0,0,-2,-1,-1,-1,-1,-1,-1,-1,-1,-1,,0,36,0,,37,,0,-10,-10,0,0,,22,,2,1,2,.54014403,1,,1,-3,-3,-1,4,5,6,4,6,4,6,,,26,male,,2,Sonstige,,5,8,,,,,,,,,,,,,,,1,symmetric,9,21,NSQ,AGV,105,-7,0,0,0,0,.5,0,AGV vs. NSQ,negative,,,1,3,1_1,1,0,0,1,Value -3,0,0,,1,,symmetric,0,0,0,,,3,,1
141210_1516,8,5,3,.20349826,.72138512,1,1,7,AGV,NSQ,2,-1,0,.25,1,-1,-1,-1,-1,-1,-1,-1,-1,-1,,1,33,37,,0,,0,3,3,1,1.25,,18,,2,1,2,.9737516,2,,1,-3,1,3,1,5,8,4,8,1,8,,,26,male,,2,Sonstige,,5,8,,,,,,,,,,,,,,,1,symmetric,9,21,AGV,NSQ,105,1,1,1,1,0,.5,0,AGV vs. NSQ,positive,1,1,1,2,1_1,0,1,1,0,Value 1,0,0,,1,,symmetric,0,0,0,,,1,,0
141210_1516,4,5,2,.70656019,.14605941,-3,-3,1,AGV,NSQ,1,-1,0,-.125,-1,1,-1,-1,-1,-1,-1,-1,-1,-1,,0,35,26,,0,,1,3,1,1,-3.125,,16,,2,1,2,.3150036,2,,1,3,-3,1,2,5,6,4,6,2,6,,,26,male,,2,Sonstige,,5,8,,,,,,,,,,,,,,,1,symmetric,9,21,NSQ,AGV,105,1,1,1,1,0,.5,0,AGV vs. NSQ,negative,1,1,1,1,1_1,0,1,0,1,Value -3,0,0,,1,,symmetric,0,0,0,,,3,,1
141210_1516,15,5,3,.80564755,.61604929,1,1,-1,AGV,AGV,1,-1,0,.125,-1,-1,-1,-1,-1,-1,1,-1,-1,-1,,1,34,36,,,0,1,1,-3,0,.125,,24,,2,1,2,.91076851,1,,1,1,1,-1,5,7,8,4,8,7,8,,,26,male,,2,Sonstige,,5,8,,,,,,,,,,,,,,,1,symmetric,9,21,AGV,RAND,105,1,1,1,1,0,.5,1,AGV vs. RAND,positive,1,1,1,3,1_1,1,0,1,0,Value 1,1,1,,,0,symmetric,1,1,0,,,1,,0
141210_1516,11,5,3,.28710303,.87430006,3,3,3,AGV,RAND,1,-1,0,0,-1,-1,-1,1,-1,-1,-1,-1,-1,-1,,1,31,37,,,0,0,-3,3,1,3,,22,,2,1,2,.6379655,2,,1,3,-1,1,5,8,9,4,9,8,9,,,26,male,,2,Sonstige,,5,8,,,,,,,,,,,,,,,1,symmetric,9,21,RAND,AGV,105,3,1,1,1,0,.5,.5,AGV vs. RAND,positive,1,1,1,2,1_1,0,1,1,0,Value 3,0,0,,,1,symmetric,0,0,0,,,3,,1
141210_1516,3,5,3,.45602921,.94776922,3,3,5,AGV,AGV,1,-1,0,-.25,-1,-1,-1,-1,1,-1,-1,-1,-1,-1,,1,33,17,,,0,0,1,1,1,2.75,,14,,2,1,2,.85032946,2,,1,1,3,1,4,5,7,4,7,4,7,,,26,male,,2,Sonstige,,5,8,,,,,,,,,,,,,,,1,symmetric,9,21,AGV,RAND,105,5,1,1,1,0,.5,1,AGV vs. RAND,positive,1,1,1,1,1_1,0,1,1,0,Value 3,1,1,,,0,symmetric,1,1,0,,,3,,0
141210_1516,18,5,3,.80030268,.59142709,1,-10,-30,SM,SM,1,Yes,2,0,-2,-1,-1,-1,-1,-1,-1,-1,-1,-1,,1,36,,39,0,,0,-10,-10,1,1,9,25,,2,1,2,.8904748,1,,1,1,-1,1,1,3,5,4,3,1,3,7,20,26,male,,2,Sonstige,,5,8,,,,,,,,,,,,,,,1,symmetric,9,21,SM,NSQ,105,1,1,1,1,0,.5,1,SM vs. NSQ,positive,,,1,3,1_1,1,0,1,0,Value 1,1,,1,0,,symmetric,1,1,0,,,1,,0
141210_1516,12,5,2,.085559562,.9610827,3,-10,-30,SM,NSQ,1,Yes,2,0,-2,-1,-1,-1,-1,-1,-1,-1,-1,-1,,1,38,,36,,,0,-10,-10,1,3,,24,,2,1,2,.59148782,3,,1,1,3,-3,4,5,8,4,8,4,8,,,26,male,,2,Sonstige,,5,8,,,,,,,,,,,,,,,1,symmetric,9,21,NSQ,SM,105,1,1,1,1,0,.5,0,SM vs. NSQ,positive,,,1,2,1_1,0,1,1,0,Value 3,0,,0,1,,symmetric,0,0,0,,,3,,1
141210_1516,6,5,1,.10509574,.12947281,-3,-10,-30,SM,NSQ,2,No,2,0,-2,-1,-1,-1,-1,-1,-1,-1,-1,-1,,0,31,,23,,,0,-10,-10,1,-3,,23,,2,1,2,.17347313,3,,1,-1,3,-3,1,2,5,4,2,1,2,,,26,male,,2,Sonstige,,5,8,,,,,,,,,,,,,,,1,symmetric,9,21,SM,NSQ,105,-1,0,0,0,0,.5,0,SM vs. NSQ,negative,,,1,1,1_1,0,1,0,1,Value -3,0,,0,1,,symmetric,0,0,0,,,3,,0
141210_1516,14,5,1,.24848473,.83471769,3,-10,-30,RAND,SM,1,-1,0,0,-2,-1,-1,-1,-1,-1,-1,-1,-1,-1,,1,30,,0,,39,1,-10,-10,0,0,,24,,2,1,2,.077490099,3,,1,3,-3,1,5,6,9,4,9,6,9,,,26,male,,2,Sonstige,,5,8,,,,,,,,,,,,,,,1,symmetric,9,21,SM,RAND,105,1,1,1,1,0,.5,1,SM vs. RAND,positive,,,1,3,1_1,1,0,1,0,Value 3,1,,1,,0,symmetric,1,1,0,,,3,,0
141210_1516,7,5,1,.76533663,.69036692,1,-10,-30,RAND,RAND,1,-1,0,0,-2,-1,-1,-1,-1,-1,-1,-1,-1,-1,,1,34,,0,,36,1,-10,-10,1,1,,23,,2,1,2,.24916792,1,,1,3,1,1,3,5,7,4,7,3,7,,,26,male,,2,Sonstige,,5,8,,,,,,,,,,,,,,,1,symmetric,9,21,RAND,SM,105,5,1,1,1,0,.5,.5,SM vs. RAND,positive,,,1,2,1_1,0,1,1,0,Value 1,0,,0,,1,symmetric,0,0,0,,,1,,1
141210_1516,2,5,3,.048496515,.45664814,-1,-10,-30,SM,SM,1,No,1,0,-2,-1,-1,-1,-1,-1,-1,-1,-1,-1,,0,30,,37,,0,1,-10,-10,0,0,,22,,2,1,2,.54649431,3,,1,1,-1,-1,3,5,7,4,7,3,7,,,26,male,,2,Sonstige,,5,8,,,,,,,,,,,,,,,1,symmetric,9,21,SM,RAND,105,-1,0,0,0,0,.5,0,SM vs. RAND,negative,,,1,1,1_1,0,1,0,1,Value -1,1,,1,,0,symmetric,1,1,0,,,1,,0
141210_1516,17,5,2,.94826651,.81179148,3,-10,-30,RAND,RAND,2,-1,0,0,-2,-1,-1,-1,-1,-1,-1,-1,-1,-1,,1,36,,,0,37,0,-10,-10,0,0,,24,,2,1,2,.81885004,2,,1,3,3,1,3,5,9,4,9,3,9,,,26,male,,2,Sonstige,,5,8,,,,,,,,,,,,,,,1,symmetric,9,21,NSQ,RAND,105,7,1,1,1,0,.5,.5,NSQ vs. RAND,positive,,,1,3,1_1,1,0,1,0,Value 3,0,,,0,1,symmetric,1,,0,,,3,,0
141210_1516,10,5,3,.41213274,.17368689,-3,-10,-30,RAND,NSQ,2,-1,0,0,-2,-1,-1,-1,-1,-1,-1,-1,-1,-1,,0,32,,,0,38,0,-10,-10,0,0,,24,,2,1,2,.48056224,2,,1,-3,1,1,5,8,9,4,9,8,9,,,26,male,,2,Sonstige,,5,8,,,,,,,,,,,,,,,1,symmetric,9,21,RAND,NSQ,105,-1,0,0,1,0,.5,0,NSQ vs. RAND,negative,,,1,2,1_1,0,1,0,1,Value -3,1,,,1,0,symmetric,1,,1,,,3,,1
141210_1516,5,5,2,.32083169,.8951211,3,-10,-30,NSQ,NSQ,1,-1,0,0,-2,-1,-1,-1,-1,-1,-1,-1,-1,-1,,1,31,,,36,0,1,-10,-10,0,0,,21,,2,1,2,.32163519,1,,1,-3,3,-1,3,5,7,4,7,3,7,,,26,male,,2,Sonstige,,5,8,,,,,,,,,,,,,,,1,symmetric,9,21,NSQ,RAND,105,-1,0,0,0,0,.5,0,NSQ vs. RAND,positive,,,1,1,1_1,0,1,1,0,Value 3,1,,,1,0,symmetric,1,,1,,,3,,0
141210_1516,13,6,3,.95918411,.45811489,-1,-1,3,AGV,AGV,2,-1,0,.125,-1,1,-1,-1,-1,-1,-1,-1,-1,-1,,0,34,36,0,,,0,1,3,1,-.875,,23,,2,1,2,.98542231,1,106,1,1,-1,3,5,6,9,4,9,5,9,,,21,male,,2,Die Linke,,3,6,,,,,,,,,,,,,,,1,symmetric,9,21,SM,AGV,106,3,1,1,1,0,.5,1,AGV vs. SM,negative,1,1,1,3,1_1,1,0,0,1,Value -1,1,1,0,,,symmetric,1,1,0,0,,1,,1
141210_1516,1,6,3,.6816389,.97905171,3,3,7,AGV,SM,1,-1,0,-.125,-1,1,-1,-1,-1,-1,-1,-1,-1,-1,,1,30,32,0,,,1,3,1,1,2.875,,14,,2,1,2,.92243594,2,,1,3,3,-1,6,8,9,4,9,8,9,,,21,male,,2,Die Linke,,3,6,,,,,,,,,,,,,,,1,symmetric,9,21,SM,AGV,106,5,1,1,1,0,.5,1,AGV vs. SM,positive,1,1,1,1,1_1,0,1,1,0,Value 3,0,0,1,,,symmetric,0,0,0,,,3,,1
141210_1516,9,6,2,.24179651,.45117721,-1,-1,-7,AGV,SM,2,-1,0,.25,-1,-1,-1,-1,-1,-1,-1,-1,-1,1,,0,34,38,0,,,0,-3,-3,0,.25,,18,,2,1,2,.61983997,3,,1,-1,-3,-1,3,5,6,4,5,3,5,,,21,male,,2,Die Linke,,3,6,,,,,,,,,,,,,,,1,symmetric,9,21,AGV,SM,106,-5,0,0,0,0,.5,0,AGV vs. SM,negative,1,1,1,2,1_1,0,1,0,1,Value -1,0,0,1,,,symmetric,0,0,0,,,1,,0
141210_1516,16,6,2,.89739692,.4201808,-1,-10,-30,NSQ,NSQ,1,-1,0,0,-2,-1,-1,-1,-1,-1,-1,-1,-1,-1,,0,34,0,,39,,0,-10,-10,0,0,,23,,2,1,2,.55234516,2,,1,-3,-3,-1,4,5,6,4,5,4,5,,,21,male,,2,Die Linke,,3,6,,,,,,,,,,,,,,,1,symmetric,9,21,NSQ,AGV,106,-7,0,0,0,0,.5,0,AGV vs. NSQ,negative,,,1,3,1_1,1,0,0,1,Value -1,0,0,,1,,symmetric,0,0,0,,,1,,1
141210_1516,4,6,2,.69331002,.71894884,1,1,1,AGV,NSQ,1,-1,0,.25,-1,-1,-1,1,-1,-1,-1,-1,-1,-1,,1,31,34,,0,,0,3,-3,1,1.25,,23,,2,1,2,.74742138,3,,1,3,-3,1,2,5,6,4,5,2,5,,,21,male,,2,Die Linke,,3,6,,,,,,,,,,,,,,,1,symmetric,9,21,NSQ,AGV,106,1,1,1,1,0,.5,0,AGV vs. NSQ,positive,1,1,1,1,1_1,0,1,1,0,Value 1,0,0,,1,,symmetric,0,0,0,,,1,,1
141210_1516,8,6,2,.26031592,.44972321,-1,-1,5,AGV,AGV,1,-1,0,.25,1,-1,-1,-1,-1,-1,-1,-1,-1,-1,,0,36,38,,0,,1,3,3,1,-.75,,21,,2,1,2,.70650262,3,,1,3,-1,3,3,6,7,4,7,3,7,,,21,male,,2,Die Linke,,3,6,,,,,,,,,,,,,,,1,symmetric,9,21,AGV,NSQ,106,5,1,1,1,0,.5,1,AGV vs. NSQ,negative,1,1,1,2,1_1,0,1,0,1,Value -1,1,1,,0,,symmetric,1,1,0,,,1,,0
141210_1516,15,6,2,.12528922,.31196761,-1,-10,-30,RAND,AGV,1,-1,0,0,-2,-1,-1,-1,-1,-1,-1,-1,-1,-1,,0,32,0,,,40,0,-10,-10,1,-1,,23,,2,1,2,.4776395,3,,1,3,1,-1,2,4,6,4,4,2,4,,,21,male,,2,Die Linke,,3,6,,,,,,,,,,,,,,,1,symmetric,9,21,AGV,RAND,106,3,1,1,1,0,.5,1,AGV vs. RAND,negative,,,1,3,1_1,1,0,0,1,Value -1,1,1,,,0,symmetric,1,1,0,,,1,,0
141210_1516,3,6,2,.017119784,.78511012,3,-10,-30,RAND,AGV,1,-1,0,0,-2,-1,-1,-1,-1,-1,-1,-1,-1,-1,,1,35,0,,,36,1,-10,-10,0,0,,23,,2,1,2,.45826316,3,,1,1,1,3,1,3,6,4,3,1,3,,,21,male,,2,Die Linke,,3,6,,,,,,,,,,,,,,,1,symmetric,9,21,AGV,RAND,106,5,1,1,1,0,.5,1,AGV vs. RAND,positive,,,1,1,1_1,0,1,1,0,Value 3,1,1,,,0,symmetric,1,1,1,,,3,,0
141210_1516,11,6,1,.48393181,.44178012,-1,-1,3,AGV,AGV,2,-1,0,.125,-1,1,-1,-1,-1,-1,-1,-1,-1,-1,,0,36,35,,,0,1,1,3,1,-.875,,20,,2,1,2,.20821351,2,,1,3,3,-1,1,2,6,4,2,1,2,,,21,male,,2,Die Linke,,3,6,,,,,,,,,,,,,,,1,symmetric,9,21,RAND,AGV,106,5,1,1,1,0,.5,1,AGV vs. RAND,negative,1,1,1,2,1_1,0,1,0,1,Value -1,1,1,,,0,symmetric,1,1,1,,,1,,1
141210_1516,18,6,2,.73788297,.30736133,-1,-10,-30,NSQ,NSQ,2,-1,0,0,-2,-1,-1,-1,-1,-1,-1,-1,-1,-1,,0,37,,0,40,,0,-10,-10,0,0,9,25,,2,1,2,.71686029,1,,1,-3,-1,-3,4,6,9,4,9,4,9,7,22,21,male,,2,Die Linke,,3,6,,,,,,,,,,,,,,,1,symmetric,9,21,SM,NSQ,106,-7,0,0,0,0,.5,0,SM vs. NSQ,negative,,,1,3,1_1,1,0,0,1,Value -1,0,,0,1,,symmetric,0,0,0,,,1,,0
141210_1516,12,6,3,.8119083,.2584317,-1,-10,-30,SM,SM,2,No,0,0,-2,-1,-1,-1,-1,-1,-1,-1,-1,-1,,0,37,,38,,,0,-10,-10,0,0,,25,,2,1,2,.97858751,1,,1,-3,-1,-1,1,3,6,4,3,1,3,,,21,male,,2,Die Linke,,3,6,,,,,,,,,,,,,,,1,symmetric,9,21,NSQ,SM,106,-5,0,0,0,0,.5,0,SM vs. NSQ,negative,,,1,2,1_1,0,1,0,1,Value -1,1,,1,0,,symmetric,1,1,1,,,1,,1
141210_1516,6,6,3,.45407119,.46019277,-1,-10,-30,SM,SM,1,No,1,0,-2,-1,-1,-1,-1,-1,-1,-1,-1,-1,,0,36,,36,,,0,-10,-10,0,0,,20,,2,1,2,.62015039,2,,1,-3,1,-1,3,4,6,4,4,3,4,,,21,male,,2,Die Linke,,3,6,,,,,,,,,,,,,,,1,symmetric,9,21,SM,NSQ,106,-3,0,0,0,0,.5,0,SM vs. NSQ,negative,,,1,1,1_1,0,1,0,1,Value -1,1,,1,0,,symmetric,1,1,1,,,1,,0
141210_1516,14,6,1,.53432482,.10059825,-3,-10,-30,RAND,RAND,2,-1,0,0,-2,-1,-1,-1,-1,-1,-1,-1,-1,-1,,0,35,,0,,39,1,-10,-10,0,0,,24,,2,1,2,.18550706,2,,1,3,-3,1,5,6,9,4,9,5,9,,,21,male,,2,Die Linke,,3,6,,,,,,,,,,,,,,,1,symmetric,9,21,SM,RAND,106,1,1,1,1,0,.5,.5,SM vs. RAND,negative,,,1,3,1_1,1,0,0,1,Value -3,0,,0,,1,symmetric,0,0,0,,,3,,0
141210_1516,2,6,2,.9906581,.080889262,-3,-10,-30,SM,SM,1,No,2,0,-2,-1,-1,-1,-1,-1,-1,-1,-1,-1,,0,35,,37,,0,0,-10,-10,1,-3,,21,,2,1,2,.2311884,1,,1,3,-3,1,4,6,8,4,8,4,8,,,21,male,,2,Die Linke,,3,6,,,,,,,,,,,,,,,1,symmetric,9,21,SM,RAND,106,1,1,1,1,0,.5,1,SM vs. RAND,negative,,,1,1,1_1,0,1,0,1,Value -3,1,,1,,0,symmetric,1,1,1,,,3,,0
141210_1516,7,6,2,.31456026,.1873486,-3,-10,-30,RAND,SM,2,-1,0,0,-2,-1,-1,-1,-1,-1,-1,-1,-1,-1,,0,36,,0,,38,0,-10,-10,1,-3,,25,,2,1,2,.55158865,2,,1,3,-3,1,1,6,8,4,8,1,8,,,21,male,,2,Die Linke,,3,6,,,,,,,,,,,,,,,1,symmetric,9,21,RAND,SM,106,1,1,1,1,0,.5,1,SM vs. RAND,negative,,,1,2,1_1,0,1,0,1,Value -3,1,,1,,0,symmetric,1,1,1,,,3,,1
141210_1516,17,6,1,.66021609,.23254536,-3,-10,-30,RAND,NSQ,1,-1,0,0,-2,-1,-1,-1,-1,-1,-1,-1,-1,-1,,0,35,,,0,39,1,-10,-10,0,0,,24,,2,1,2,.20258725,2,,1,3,-3,1,2,6,8,4,8,2,8,,,21,male,,2,Die Linke,,3,6,,,,,,,,,,,,,,,1,symmetric,9,21,NSQ,RAND,106,1,1,1,1,0,.5,0,NSQ vs. RAND,negative,,,1,3,1_1,1,0,0,1,Value -3,1,,,1,0,symmetric,1,,0,,,3,,0
141210_1516,5,6,1,.16379909,.56396729,1,-10,-30,NSQ,NSQ,1,-1,0,0,-2,-1,-1,-1,-1,-1,-1,-1,-1,-1,,1,30,,,39,0,0,-10,-10,0,0,,21,,2,1,2,.20829965,3,,1,-3,-1,1,2,4,6,4,4,2,4,,,21,male,,2,Die Linke,,3,6,,,,,,,,,,,,,,,1,symmetric,9,21,NSQ,RAND,106,-3,0,0,0,0,.5,0,NSQ vs. RAND,positive,,,1,1,1_1,0,1,1,0,Value 1,1,,,1,0,symmetric,1,,1,,,1,,0
141210_1516,10,6,2,.29405016,.21157776,-3,-10,-30,NSQ,NSQ,2,-1,0,0,-2,-1,-1,-1,-1,-1,-1,-1,-1,-1,,0,36,,,36,0,0,-10,-10,0,0,,24,,2,1,2,.36421904,2,,1,3,-3,-1,1,6,7,4,7,1,7,,,21,male,,2,Die Linke,,3,6,,,,,,,,,,,,,,,1,symmetric,9,21,RAND,NSQ,106,-1,0,0,0,0,.5,0,NSQ vs. RAND,negative,,,1,2,1_1,0,1,0,1,Value -3,1,,,1,0,symmetric,1,,1,,,3,,1
141210_1516,13,7,1,.3032259,.80131507,3,3,5,AGV,AGV,2,-1,0,-.125,-1,-1,1,-1,-1,-1,-1,-1,-1,-1,,1,25,36,0,,,0,-1,3,1,2.875,,20,,2,1,2,.23462452,2,85,1,-1,1,3,2,4,7,4,4,2,4,,,23,female,,4,SPD,,8,7,,,,,,,,,,,,,,,1,symmetric,9,21,SM,AGV,107,3,1,1,1,0,.5,1,AGV vs. SM,positive,1,1,1,3,1_1,1,0,1,0,Value 3,1,1,0,,,symmetric,1,1,0,1,,3,,1
141210_1516,9,7,3,.55388016,.48671985,-1,-1,5,AGV,AGV,1,-1,0,.25,1,-1,-1,-1,-1,-1,-1,-1,-1,-1,,0,35,36,0,,,0,3,3,1,-.75,,21,,2,1,2,.72957641,3,,1,-1,3,3,7,8,9,4,9,8,9,,,23,female,,4,SPD,,8,7,,,,,,,,,,,,,,,1,symmetric,9,21,AGV,SM,107,5,1,1,1,0,.5,1,AGV vs. SM,negative,1,1,1,2,1_1,0,1,0,1,Value -1,1,1,0,,,symmetric,1,1,1,,,1,,0
141210_1516,1,7,2,.32338229,.4767442,-1,-3,-5,AGV,SM,1,-1,0,-.25,-1,-1,-1,-1,-1,-1,-1,1,-1,-1,,0,23,13,0,,,0,-1,-1,0,-.25,,0,,2,1,2,.37817925,3,,1,-1,-1,-1,2,5,7,4,5,2,5,,,23,female,,4,SPD,,8,7,,,,,,,,,,,,,,,1,symmetric,9,21,SM,AGV,107,-3,0,0,0,0,.5,0,AGV vs. SM,negative,0,1,1,1,1_1,0,1,0,1,Value -1,0,0,1,,,symmetric,0,0,1,,,1,,1
141210_1516,16,7,1,.17004652,.015875947,-3,-3,-3,AGV,NSQ,1,-1,0,0,-1,-1,-1,1,-1,-1,-1,-1,-1,-1,,0,33,32,,0,,1,3,-3,0,0,,23,,2,1,2,.26490375,2,,1,3,-3,-3,2,7,8,4,8,2,8,,,23,female,,4,SPD,,8,7,,,,,,,,,,,,,,,1,symmetric,9,21,NSQ,AGV,107,-3,0,0,0,0,.5,0,AGV vs. NSQ,negative,1,1,1,3,1_1,1,0,0,1,Value -3,0,0,,1,,symmetric,0,0,0,,,3,,1
141210_1516,8,7,2,.8023777,.88346821,3,3,5,AGV,AGV,1,-1,0,-.125,-1,-1,1,-1,-1,-1,-1,-1,-1,-1,,1,31,37,,0,,0,3,-1,1,2.875,,23,,2,1,2,.83880532,2,,1,3,-1,3,3,6,7,4,6,3,6,,,23,female,,4,SPD,,8,7,,,,,,,,,,,,,,,1,symmetric,9,21,AGV,NSQ,107,5,1,1,1,0,.5,1,AGV vs. NSQ,positive,1,1,1,2,1_1,0,1,1,0,Value 3,1,1,,0,,symmetric,1,1,1,,,3,,0
141210_1516,4,7,1,.96494937,.56947201,1,1,5,AGV,AGV,2,-1,0,.125,-1,1,-1,-1,-1,-1,-1,-1,-1,-1,,1,28,36,,0,,1,1,3,1,1.125,,21,,2,1,2,.26565588,1,,1,-3,1,1,1,4,7,4,4,1,4,,,23,female,,4,SPD,,8,7,,,,,,,,,,,,,,,1,symmetric,9,21,NSQ,AGV,107,-1,0,0,1,0,.5,0,AGV vs. NSQ,positive,1,1,1,1,1_1,0,1,1,0,Value 1,1,1,,0,,symmetric,1,1,1,,,1,,1
141210_1516,15,7,3,.0070394459,.58162081,1,1,-1,AGV,AGV,1,-1,0,.125,-1,-1,-1,-1,-1,-1,1,-1,-1,-1,,1,32,33,,,0,0,1,-3,0,.125,,20,,2,1,2,.81168687,3,,1,1,1,-1,5,7,8,4,8,5,8,,,23,female,,4,SPD,,8,7,,,,,,,,,,,,,,,1,symmetric,9,21,AGV,RAND,107,1,1,1,1,0,.5,1,AGV vs. RAND,positive,1,1,1,3,1_1,1,0,1,0,Value 1,1,1,,,0,symmetric,1,1,0,,,1,,0
141210_1516,3,7,3,.61230522,.73221612,1,1,5,AGV,AGV,1,-1,0,.125,-1,1,-1,-1,-1,-1,-1,-1,-1,-1,,1,29,28,,,0,0,1,3,1,1.125,,14,,2,1,2,.80008763,1,,1,1,3,1,4,5,7,4,5,4,5,,,23,female,,4,SPD,,8,7,,,,,,,,,,,,,,,1,symmetric,9,21,AGV,RAND,107,5,1,1,1,0,.5,1,AGV vs. RAND,positive,1,1,1,1,1_1,0,1,1,0,Value 1,1,1,,,0,symmetric,1,1,1,,,1,,0
141210_1516,11,7,2,.28643554,.19509451,-3,-3,-3,AGV,AGV,2,-1,0,0,-1,-1,-1,1,-1,-1,-1,-1,-1,-1,,0,33,30,,,0,1,3,-3,0,0,,22,,2,1,2,.40918022,2,,1,3,-1,-3,3,4,7,4,4,3,4,,,23,female,,4,SPD,,8,7,,,,,,,,,,,,,,,1,symmetric,9,21,RAND,AGV,107,-1,0,0,0,0,.5,0,AGV vs. RAND,negative,1,1,1,2,1_1,0,1,0,1,Value -3,1,1,,,0,symmetric,1,1,1,,,3,,1
141210_1516,18,7,1,.11656052,.89441943,3,-10,-30,NSQ,SM,1,-1,0,0,-2,-1,-1,-1,-1,-1,-1,-1,-1,-1,,1,36,,0,36,,1,-10,-10,0,0,9,20,,2,1,2,.55325294,3,,1,-1,3,1,2,7,8,4,8,2,8,7,19,23,female,,4,SPD,,8,7,,,,,,,,,,,,,,,1,symmetric,9,21,SM,NSQ,107,3,1,1,1,0,.5,1,SM vs. NSQ,positive,,,1,3,1_1,1,0,1,0,Value 3,1,,1,0,,symmetric,1,1,0,,,3,,0
141210_1516,6,7,2,.33952826,.22077473,-3,-10,-30,SM,SM,1,No,0,0,-2,-1,-1,-1,-1,-1,-1,-1,-1,-1,,0,34,,28,,,1,-10,-10,0,0,,23,,2,1,2,.29585901,2,,1,-3,-3,-3,7,8,9,4,9,8,9,,,23,female,,4,SPD,,8,7,,,,,,,,,,,,,,,1,symmetric,9,21,SM,NSQ,107,-9,0,0,0,0,.5,0,SM vs. NSQ,negative,,,1,1,1_1,0,1,0,1,Value -3,1,,1,0,,symmetric,1,1,1,,,3,,0
141210_1516,12,7,1,.59461993,.75784492,3,-10,-30,SM,SM,2,Yes,3,0,-2,-1,-1,-1,-1,-1,-1,-1,-1,-1,,1,34,,37,,,0,-10,-10,1,3,,23,,2,1,2,.075719237,1,,1,3,3,3,2,7,9,4,9,2,9,,,23,female,,4,SPD,,8,7,,,,,,,,,,,,,,,1,symmetric,9,21,NSQ,SM,107,9,1,1,1,0,.5,1,SM vs. NSQ,positive,,,1,2,1_1,0,1,1,0,Value 3,1,,1,0,,symmetric,1,1,1,,,3,,1
141210_1516,14,7,3,.89179552,.54983765,1,-10,-30,SM,SM,1,Yes,1,0,-2,-1,-1,-1,-1,-1,-1,-1,-1,-1,,1,34,,35,,0,0,-10,-10,0,0,,24,,2,1,2,.77124423,1,,1,3,-1,1,1,2,7,4,2,1,2,,,23,female,,4,SPD,,8,7,,,,,,,,,,,,,,,1,symmetric,9,21,SM,RAND,107,3,1,1,1,0,.5,1,SM vs. RAND,positive,,,1,3,1_1,1,0,1,0,Value 1,1,,1,,0,symmetric,1,1,0,,,1,,0
141210_1516,2,7,3,.72546339,.29945841,-1,-10,-30,SM,RAND,2,No,1,0,-2,-1,-1,-1,-1,-1,-1,-1,-1,-1,,0,25,,26,,0,1,-10,-10,0,0,,24,,2,1,2,.50749213,2,,1,1,-1,-1,3,5,7,4,5,3,5,,,23,female,,4,SPD,,8,7,,,,,,,,,,,,,,,1,symmetric,9,21,SM,RAND,107,-1,0,0,0,0,.5,.5,SM vs. RAND,negative,,,1,1,1_1,0,1,0,1,Value -1,0,,0,,1,symmetric,0,0,0,,,1,,0
141210_1516,7,7,1,.65618157,.72732085,1,-10,-30,RAND,SM,2,-1,0,0,-2,-1,-1,-1,-1,-1,-1,-1,-1,-1,,1,35,,0,,36,1,-10,-10,1,1,,24,,2,1,2,.14646122,2,,1,3,1,1,3,5,7,4,5,3,5,,,23,female,,4,SPD,,8,7,,,,,,,,,,,,,,,1,symmetric,9,21,RAND,SM,107,5,1,1,1,0,.5,1,SM vs. RAND,positive,,,1,2,1_1,0,1,1,0,Value 1,1,,1,,0,symmetric,1,1,0,,,1,,1
141210_1516,17,7,3,.88816833,.10881642,-3,-10,-30,NSQ,NSQ,1,-1,0,0,-2,-1,-1,-1,-1,-1,-1,-1,-1,-1,,0,32,,,38,0,1,-10,-10,0,0,,25,,2,1,2,.85301512,1,,1,-3,-3,-3,1,4,7,4,4,1,4,,,23,female,,4,SPD,,8,7,,,,,,,,,,,,,,,1,symmetric,9,21,NSQ,RAND,107,-9,0,0,0,0,.5,0,NSQ vs. RAND,negative,,,1,3,1_1,1,0,0,1,Value -3,1,,,1,0,symmetric,1,,0,,,3,,0
141210_1516,10,7,2,.81385189,.35556725,-1,-10,-30,NSQ,NSQ,2,-1,0,0,-2,-1,-1,-1,-1,-1,-1,-1,-1,-1,,0,30,,,38,0,0,-10,-10,0,0,,25,,2,1,2,.19652757,1,,1,3,-3,-1,1,6,7,4,6,1,6,,,23,female,,4,SPD,,8,7,,,,,,,,,,,,,,,1,symmetric,9,21,RAND,NSQ,107,-1,0,0,0,0,.5,0,NSQ vs. RAND,negative,,,1,2,1_1,0,1,0,1,Value -1,1,,,1,0,symmetric,1,,1,,,1,,1
141210_1516,5,7,2,.28722173,.3003329,-1,-10,-30,NSQ,NSQ,1,-1,0,0,-2,-1,-1,-1,-1,-1,-1,-1,-1,-1,,0,31,,,34,0,0,-10,-10,0,0,,24,,2,1,2,.7641117,3,,1,-3,3,-1,3,5,7,4,5,3,5,,,23,female,,4,SPD,,8,7,,,,,,,,,,,,,,,1,symmetric,9,21,NSQ,RAND,107,-1,0,0,0,0,.5,0,NSQ vs. RAND,negative,,,1,1,1_1,0,1,0,1,Value -1,1,,,1,0,symmetric,1,,1,,,1,,0
141210_1516,13,8,2,.24719138,.93495178,3,-10,-30,SM,AGV,2,Yes,2,0,-2,-1,-1,-1,-1,-1,-1,-1,-1,-1,,1,31,0,37,,,0,-10,-10,1,3,,23,,2,1,2,.54877341,2,96,1,1,-1,3,1,3,8,4,3,1,3,,,23,female,,4,CDU/CSU,,8,4,,,,,,,,,,,,,,,1,symmetric,9,21,SM,AGV,108,3,1,1,1,0,.5,1,AGV vs. SM,positive,,,0,3,1_1,1,0,1,0,Value 3,1,1,0,,,symmetric,1,1,0,1,,3,,1
141210_1516,9,8,3,.75617254,.75922239,3,3,5,AGV,AGV,1,-1,0,-.125,-1,-1,1,-1,-1,-1,-1,-1,-1,-1,,1,35,37,0,,,1,-1,3,1,2.875,,23,,2,1,2,.65073323,1,,1,-1,3,3,7,8,9,4,9,7,9,,,23,female,,4,CDU/CSU,,8,4,,,,,,,,,,,,,,,1,symmetric,9,21,AGV,SM,108,5,1,1,1,0,.5,1,AGV vs. SM,positive,1,1,0,2,1_1,0,1,1,0,Value 3,1,1,0,,,symmetric,1,1,1,,,3,,0
141210_1516,1,8,3,.15244272,.75863868,3,3,7,AGV,SM,1,-1,0,-.125,-1,1,-1,-1,-1,-1,-1,-1,-1,-1,,1,23,26,0,,,0,3,1,1,2.875,,4,,2,1,2,.63522494,3,,1,3,3,-1,6,8,9,4,9,6,9,,,23,female,,4,CDU/CSU,,8,4,,,,,,,,,,,,,,,1,symmetric,9,21,SM,AGV,108,5,1,1,1,0,.5,1,AGV vs. SM,positive,1,1,0,1,1_1,0,1,1,0,Value 3,0,0,1,,,symmetric,0,0,1,,,3,,1
141210_1516,16,8,1,.011786559,.21247274,-3,-3,-3,AGV,NSQ,1,-1,0,0,-1,-1,-1,1,-1,-1,-1,-1,-1,-1,,0,32,36,,0,,1,3,-3,0,0,,23,,2,1,2,.38720137,3,,1,3,-3,-3,2,7,8,4,7,2,7,,,23,female,,4,CDU/CSU,,8,4,,,,,,,,,,,,,,,1,symmetric,9,21,NSQ,AGV,108,-3,0,0,0,0,.5,0,AGV vs. NSQ,negative,1,1,0,3,1_1,1,0,0,1,Value -3,0,0,,1,,symmetric,0,0,0,,,3,,1
141210_1516,8,8,3,.60333812,.94268584,3,3,7,AGV,AGV,1,-1,0,-.125,-1,1,-1,-1,-1,-1,-1,-1,-1,-1,,1,34,37,,0,,0,3,1,1,2.875,,16,,2,1,2,.87654757,1,,1,-3,1,3,1,5,8,4,5,1,5,,,23,female,,4,CDU/CSU,,8,4,,,,,,,,,,,,,,,1,symmetric,9,21,AGV,NSQ,108,1,1,1,1,0,.5,1,AGV vs. NSQ,positive,1,1,0,2,1_1,0,1,1,0,Value 3,1,1,,0,,symmetric,1,1,1,,,3,,0
141210_1516,4,8,3,.53339046,.88883913,3,3,3,AGV,AGV,2,-1,0,0,-1,-1,-1,1,-1,-1,-1,-1,-1,-1,,1,34,35,,0,,0,3,-3,1,3,,15,,2,1,2,.87850797,2,,1,3,3,-1,3,8,9,4,9,3,9,,,23,female,,4,CDU/CSU,,8,4,,,,,,,,,,,,,,,1,symmetric,9,21,NSQ,AGV,108,5,1,1,1,0,.5,1,AGV vs. NSQ,positive,1,1,0,1,1_1,0,1,1,0,Value 3,1,1,,0,,symmetric,1,1,1,,,3,,1
141210_1516,15,8,3,.43812793,.41835636,-1,-3,-1,AGV,AGV,1,-1,0,-.25,-1,-1,-1,-1,1,-1,-1,-1,-1,-1,,0,29,38,,,0,1,1,1,0,-.25,,21,,2,1,2,.68372095,2,,1,1,1,-1,5,7,8,4,7,5,7,,,23,female,,4,CDU/CSU,,8,4,,,,,,,,,,,,,,,1,symmetric,9,21,AGV,RAND,108,1,1,1,1,0,.5,1,AGV vs. RAND,negative,0,1,0,3,1_1,1,0,0,1,Value -1,1,1,,,0,symmetric,1,1,0,,,1,,0
141210_1516,3,8,1,.62622827,.3458589,-1,1,3,AGV,AGV,1,-1,0,.125,-1,-1,1,-1,-1,-1,-1,-1,-1,-1,,0,30,28,,,0,0,-1,3,1,-.875,,9,,2,1,2,.18610381,2,,1,-1,-1,3,2,8,9,4,9,2,9,,,23,female,,4,CDU/CSU,,8,4,,,,,,,,,,,,,,,1,symmetric,9,21,AGV,RAND,108,1,1,1,0,0,.5,1,AGV vs. RAND,negative,0,0,0,1,1_1,0,1,0,1,Value -1,1,1,,,0,symmetric,1,1,1,,,1,,0
141210_1516,11,8,3,.1389388,.34178308,-1,-3,3,AGV,AGV,2,-1,0,0,1,-1,-1,-1,-1,-1,-1,-1,-1,-1,,0,32,36,,,0,0,3,3,1,-1,,20,,2,1,2,.97333473,3,,1,3,-1,1,5,8,9,4,9,5,9,,,23,female,,4,CDU/CSU,,8,4,,,,,,,,,,,,,,,1,symmetric,9,21,RAND,AGV,108,3,1,1,1,0,.5,1,AGV vs. RAND,negative,0,1,0,2,1_1,0,1,0,1,Value -1,1,1,,,0,symmetric,1,1,1,,,1,,1
141210_1516,18,8,1,.33998504,.64358437,1,-10,-30,NSQ,SM,1,-1,0,0,-2,-1,-1,-1,-1,-1,-1,-1,-1,-1,,1,34,,0,39,,1,-10,-10,0,0,9,25,,2,1,2,.27828792,2,,1,-1,3,1,2,7,8,4,7,2,7,7,-2,23,female,,4,CDU/CSU,,8,4,,,,,,,,,,,,,,,1,symmetric,9,21,SM,NSQ,108,3,1,1,1,0,.5,1,SM vs. NSQ,positive,,,0,3,1_1,1,0,1,0,Value 1,1,,1,0,,symmetric,1,1,0,,,1,,0
141210_1516,6,8,2,.57454437,.10816021,-3,-10,-30,SM,SM,1,No,0,0,-2,-1,-1,-1,-1,-1,-1,-1,-1,-1,,0,34,,36,,,1,-10,-10,0,0,,23,,2,1,2,.34421942,1,,1,-3,-3,-3,7,8,9,4,9,7,9,,,23,female,,4,CDU/CSU,,8,4,,,,,,,,,,,,,,,1,symmetric,9,21,SM,NSQ,108,-9,0,0,0,0,.5,0,SM vs. NSQ,negative,,,0,1,1_1,0,1,0,1,Value -3,1,,1,0,,symmetric,1,1,1,,,3,,0
141210_1516,12,8,2,.95798391,.12968449,-3,-10,-30,SM,SM,2,No,2,0,-2,-1,-1,-1,-1,-1,-1,-1,-1,-1,,0,34,,37,,,0,-10,-10,1,-3,,24,,2,1,2,.70165569,1,,1,1,3,-3,4,5,8,4,5,4,5,,,23,female,,4,CDU/CSU,,8,4,,,,,,,,,,,,,,,1,symmetric,9,21,NSQ,SM,108,1,1,1,1,0,.5,1,SM vs. NSQ,negative,,,0,2,1_1,0,1,0,1,Value -3,1,,1,0,,symmetric,1,1,1,,,3,,1
141210_1516,14,8,2,.10696441,.75088358,3,-10,-30,SM,SM,1,Yes,2,0,-2,-1,-1,-1,-1,-1,-1,-1,-1,-1,,1,30,,38,,0,0,-10,-10,1,3,,24,,2,1,2,.46924177,3,,1,-1,3,3,3,4,8,4,4,3,4,,,23,female,,4,CDU/CSU,,8,4,,,,,,,,,,,,,,,1,symmetric,9,21,SM,RAND,108,5,1,1,1,0,.5,1,SM vs. RAND,positive,,,0,3,1_1,1,0,1,0,Value 3,1,,1,,0,symmetric,1,1,0,,,3,,0
141210_1516,7,8,2,.083579898,.57360816,1,-10,-30,RAND,SM,2,-1,0,0,-2,-1,-1,-1,-1,-1,-1,-1,-1,-1,,1,29,,0,,36,1,-10,-10,1,1,,24,,2,1,2,.49926588,3,,1,3,-3,1,1,6,8,4,6,1,6,,,23,female,,4,CDU/CSU,,8,4,,,,,,,,,,,,,,,1,symmetric,9,21,RAND,SM,108,1,1,1,1,0,.5,1,SM vs. RAND,positive,,,0,2,1_1,0,1,1,0,Value 1,1,,1,,0,symmetric,1,1,1,,,1,,1
141210_1516,2,8,2,.052799527,.5058549,1,-10,-30,SM,SM,1,Yes,2,0,-2,-1,-1,-1,-1,-1,-1,-1,-1,-1,,1,34,,37,,0,0,-10,-10,1,1,,22,,2,1,2,.34791717,3,,1,3,-3,1,4,6,8,4,6,4,6,,,23,female,,4,CDU/CSU,,8,4,,,,,,,,,,,,,,,1,symmetric,9,21,SM,RAND,108,1,1,1,1,0,.5,1,SM vs. RAND,positive,,,0,1,1_1,0,1,1,0,Value 1,1,,1,,0,symmetric,1,1,1,,,1,,0
141210_1516,17,8,1,.44665188,.69717497,1,-10,-30,RAND,RAND,2,-1,0,0,-2,-1,-1,-1,-1,-1,-1,-1,-1,-1,,1,32,,,0,39,0,-10,-10,0,0,,23,,2,1,2,.12428624,3,,1,3,-3,1,2,6,8,4,6,2,6,,,23,female,,4,CDU/CSU,,8,4,,,,,,,,,,,,,,,1,symmetric,9,21,NSQ,RAND,108,1,1,1,1,0,.5,.5,NSQ vs. RAND,positive,,,0,3,1_1,1,0,1,0,Value 1,0,,,0,1,symmetric,1,,0,,,1,,0
141210_1516,5,8,3,.17072332,.89214587,3,-10,-30,RAND,RAND,2,-1,0,0,-2,-1,-1,-1,-1,-1,-1,-1,-1,-1,,1,33,,,0,34,0,-10,-10,1,3,,23,,2,1,2,.91810077,2,,1,3,3,3,1,8,9,4,9,1,9,,,23,female,,4,CDU/CSU,,8,4,,,,,,,,,,,,,,,1,symmetric,9,21,NSQ,RAND,108,9,1,1,1,0,.5,.5,NSQ vs. RAND,positive,,,0,1,1_1,0,1,1,0,Value 3,0,,,0,1,symmetric,1,,1,,,3,,0
141210_1516,10,8,3,.3989785,.71206141,1,-10,-30,RAND,RAND,1,-1,0,0,-2,-1,-1,-1,-1,-1,-1,-1,-1,-1,,1,34,,,0,39,1,-10,-10,0,0,,23,,2,1,2,.62149692,3,,1,-3,1,1,5,8,9,4,9,5,9,,,23,female,,4,CDU/CSU,,8,4,,,,,,,,,,,,,,,1,symmetric,9,21,RAND,NSQ,108,-1,0,0,1,0,.5,.5,NSQ vs. RAND,positive,,,0,2,1_1,0,1,1,0,Value 1,0,,,0,1,symmetric,1,,1,,,1,,1
141210_1516,13,9,3,.86147362,.99284154,3,3,3,AGV,AGV,2,-1,0,-.25,-1,-1,-1,-1,-1,1,-1,-1,-1,-1,,1,8,32,0,,,1,1,-1,1,2.75,,19,,2,1,2,.68997151,2,75,1,1,-1,3,5,6,9,4,6,5,6,,,26,male,,10,AfD,,8,8,,,,,,,,,,,,,,,1,symmetric,9,21,SM,AGV,109,3,1,1,1,0,.5,1,AGV vs. SM,positive,1,1,0,3,1_1,1,0,1,0,Value 3,1,1,0,,,symmetric,1,1,0,1,,3,,1
141210_1516,9,9,3,.73388094,.96701282,3,3,5,AGV,AGV,1,-1,0,-.125,-1,-1,1,-1,-1,-1,-1,-1,-1,-1,,1,24,35,0,,,0,-1,3,1,2.875,,12,,2,1,2,.92791021,2,,1,-1,3,3,7,8,9,4,8,7,8,,,26,male,,10,AfD,,8,8,,,,,,,,,,,,,,,1,symmetric,9,21,AGV,SM,109,5,1,1,1,0,.5,1,AGV vs. SM,positive,1,1,0,2,1_1,0,1,1,0,Value 3,1,1,0,,,symmetric,1,1,1,,,3,,0
141210_1516,1,9,3,.87198424,.42897767,-1,1,7,AGV,AGV,2,-1,0,.25,1,-1,-1,-1,-1,-1,-1,-1,-1,-1,,0,15,19,0,,,1,3,3,1,-.75,,-6,,2,1,2,.75115645,1,,1,3,3,-1,6,8,9,4,8,6,8,,,26,male,,10,AfD,,8,8,,,,,,,,,,,,,,,1,symmetric,9,21,SM,AGV,109,5,1,1,1,0,.5,1,AGV vs. SM,negative,0,0,0,1,1_1,0,1,0,1,Value -1,1,1,0,,,symmetric,1,1,1,,,1,,1
141210_1516,16,9,3,.97185439,.55006915,1,1,7,AGV,AGV,2,-1,0,.25,1,-1,-1,-1,-1,-1,-1,-1,-1,-1,,1,31,36,,0,,1,3,3,1,1.25,,18,,2,1,2,.6714074,1,,1,-1,1,1,1,3,9,4,3,1,3,,,26,male,,10,AfD,,8,8,,,,,,,,,,,,,,,1,symmetric,9,21,NSQ,AGV,109,1,1,1,1,0,.5,1,AGV vs. NSQ,positive,1,1,0,3,1_1,1,0,1,0,Value 1,1,1,,0,,symmetric,1,1,0,,,1,,1
141210_1516,8,9,1,.29038343,.54656118,1,-10,-30,NSQ,AGV,1,-1,0,0,-2,-1,-1,-1,-1,-1,-1,-1,-1,-1,,1,33,0,,33,,0,-10,-10,0,0,,23,,2,1,2,.22676471,2,,1,-1,1,1,2,4,9,4,4,2,4,,,26,male,,10,AfD,,8,8,,,,,,,,,,,,,,,1,symmetric,9,21,AGV,NSQ,109,1,1,1,1,0,.5,1,AGV vs. NSQ,positive,,,0,2,1_1,0,1,1,0,Value 1,1,1,,0,,symmetric,1,1,1,,,1,,0
141210_1516,4,9,3,.69577742,.34187922,-1,-3,3,AGV,AGV,2,-1,0,0,1,-1,-1,-1,-1,-1,-1,-1,-1,-1,,0,27,26,,0,,0,3,3,1,-1,,2,,2,1,2,.87832296,1,,1,3,3,-1,3,8,9,4,8,3,8,,,26,male,,10,AfD,,8,8,,,,,,,,,,,,,,,1,symmetric,9,21,NSQ,AGV,109,5,1,1,1,0,.5,1,AGV vs. NSQ,negative,0,1,0,1,1_1,0,1,0,1,Value -1,1,1,,0,,symmetric,1,1,1,,,1,,1
141210_1516,15,9,1,.55579704,.3154543,-1,-3,3,AGV,RAND,2,-1,0,0,1,-1,-1,-1,-1,-1,-1,-1,-1,-1,,0,31,32,,,0,1,3,3,1,-1,,8,,2,1,2,.19968283,2,,1,1,1,-1,1,3,9,4,3,1,3,,,26,male,,10,AfD,,8,8,,,,,,,,,,,,,,,1,symmetric,9,21,AGV,RAND,109,1,1,1,1,0,.5,.5,AGV vs. RAND,negative,0,1,0,3,1_1,1,0,0,1,Value -1,0,0,,,1,symmetric,0,0,0,,,1,,0
141210_1516,11,9,3,.84302354,.70999616,1,3,3,AGV,AGV,2,-1,0,0,-1,-1,-1,1,-1,-1,-1,-1,-1,-1,,1,33,28,,,0,1,3,-3,1,1,,6,,2,1,2,.66695201,1,,1,3,-1,1,5,8,9,4,8,5,8,,,26,male,,10,AfD,,8,8,,,,,,,,,,,,,,,1,symmetric,9,21,RAND,AGV,109,3,1,1,1,0,.5,1,AGV vs. RAND,positive,0,1,0,2,1_1,0,1,1,0,Value 1,1,1,,,0,symmetric,1,1,1,,,1,,1
141210_1516,3,9,1,.15693556,.93204874,3,3,3,AGV,AGV,1,-1,0,-.25,-1,-1,-1,-1,-1,1,-1,-1,-1,-1,,1,32,33,,,0,0,-1,1,1,2.75,,11,,2,1,2,.14153135,3,,1,-1,-1,3,2,8,9,4,8,2,8,,,26,male,,10,AfD,,8,8,,,,,,,,,,,,,,,1,symmetric,9,21,AGV,RAND,109,1,1,1,0,0,.5,1,AGV vs. RAND,positive,1,1,0,1,1_1,0,1,1,0,Value 3,1,1,,,0,symmetric,1,1,1,,,3,,0
141210_1516,18,9,2,.6039741,.17361163,-3,-10,-30,NSQ,NSQ,2,-1,0,0,-2,-1,-1,-1,-1,-1,-1,-1,-1,-1,,0,34,,0,36,,1,-10,-10,0,0,9,24,,2,1,2,.55938619,3,,1,-3,-1,-3,4,6,9,4,6,4,6,7,17,26,male,,10,AfD,,8,8,,,,,,,,,,,,,,,1,symmetric,9,21,SM,NSQ,109,-7,0,0,0,0,.5,0,SM vs. NSQ,negative,,,0,3,1_1,1,0,0,1,Value -3,0,,0,1,,symmetric,0,0,0,,,3,,0
141210_1516,6,9,2,.036235582,.026819324,-3,-10,-30,SM,SM,1,No,0,0,-2,-1,-1,-1,-1,-1,-1,-1,-1,-1,,0,33,,32,,,0,-10,-10,0,0,,15,,2,1,2,.37950015,3,,1,-3,-3,-3,7,8,9,4,8,7,8,,,26,male,,10,AfD,,8,8,,,,,,,,,,,,,,,1,symmetric,9,21,SM,NSQ,109,-9,0,0,0,0,.5,0,SM vs. NSQ,negative,,,0,1,1_1,0,1,0,1,Value -3,1,,1,0,,symmetric,1,1,1,,,3,,0
141210_1516,12,9,1,.46185884,.91679281,3,-10,-30,SM,SM,2,Yes,3,0,-2,-1,-1,-1,-1,-1,-1,-1,-1,-1,,1,31,,37,,,1,-10,-10,1,3,,19,,2,1,2,.13587801,2,,1,3,3,3,2,7,9,4,7,2,7,,,26,male,,10,AfD,,8,8,,,,,,,,,,,,,,,1,symmetric,9,21,NSQ,SM,109,9,1,1,1,0,.5,1,SM vs. NSQ,positive,,,0,2,1_1,0,1,1,0,Value 3,1,,1,0,,symmetric,1,1,1,,,3,,1
141210_1516,14,9,1,.77424502,.71741158,1,-10,-30,RAND,RAND,2,-1,0,0,-2,-1,-1,-1,-1,-1,-1,-1,-1,-1,,1,24,,0,,35,0,-10,-10,0,0,,23,,2,1,2,.24774748,1,,1,3,-3,1,5,6,9,4,6,5,6,,,26,male,,10,AfD,,8,8,,,,,,,,,,,,,,,1,symmetric,9,21,SM,RAND,109,1,1,1,1,0,.5,.5,SM vs. RAND,positive,,,0,3,1_1,1,0,1,0,Value 1,0,,0,,1,symmetric,0,0,0,,,1,,0
141210_1516,7,9,3,.75691158,.7678749,3,-10,-30,SM,RAND,1,Yes,1,0,-2,-1,-1,-1,-1,-1,-1,-1,-1,-1,,1,26,,34,,0,0,-10,-10,0,0,,13,,2,1,2,.98766804,2,,1,-1,-1,3,2,4,9,4,4,2,4,,,26,male,,10,AfD,,8,8,,,,,,,,,,,,,,,1,symmetric,9,21,RAND,SM,109,1,1,1,0,0,.5,.5,SM vs. RAND,positive,,,0,2,1_1,0,1,1,0,Value 3,0,,0,,1,symmetric,0,0,0,,,3,,1
141210_1516,2,9,1,.70781571,.74024487,1,-10,-30,SM,SM,1,Yes,1,0,-2,-1,-1,-1,-1,-1,-1,-1,-1,-1,,1,29,,31,,0,0,-10,-10,0,0,,10,,2,1,2,.094462514,1,,1,3,-1,1,1,2,9,4,2,1,2,,,26,male,,10,AfD,,8,8,,,,,,,,,,,,,,,1,symmetric,9,21,SM,RAND,109,3,1,1,1,0,.5,1,SM vs. RAND,positive,,,0,1,1_1,0,1,1,0,Value 1,1,,1,,0,symmetric,1,1,0,,,1,,0
141210_1516,17,9,2,.97359419,.61022824,1,-10,-30,RAND,RAND,2,-1,0,0,-2,-1,-1,-1,-1,-1,-1,-1,-1,-1,,1,33,,,0,39,0,-10,-10,0,0,,23,,2,1,2,.62516999,1,,1,3,3,1,3,5,9,4,5,3,5,,,26,male,,10,AfD,,8,8,,,,,,,,,,,,,,,1,symmetric,9,21,NSQ,RAND,109,7,1,1,1,0,.5,.5,NSQ vs. RAND,positive,,,0,3,1_1,1,0,1,0,Value 1,0,,,0,1,symmetric,1,,0,,,1,,0
141210_1516,10,9,3,.84941006,.51815885,1,-10,-30,RAND,RAND,1,-1,0,0,-2,-1,-1,-1,-1,-1,-1,-1,-1,-1,,1,34,,,0,38,0,-10,-10,0,0,,23,,2,1,2,.36454144,1,,1,-3,1,1,5,8,9,4,8,5,8,,,26,male,,10,AfD,,8,8,,,,,,,,,,,,,,,1,symmetric,9,21,RAND,NSQ,109,-1,0,0,1,0,.5,.5,NSQ vs. RAND,positive,,,0,2,1_1,0,1,1,0,Value 1,0,,,0,1,symmetric,1,,1,,,1,,1
141210_1516,5,9,3,.761581,.99800527,3,-10,-30,RAND,RAND,2,-1,0,0,-2,-1,-1,-1,-1,-1,-1,-1,-1,-1,,1,31,,,0,35,1,-10,-10,1,3,,22,,2,1,2,.96113867,1,,1,3,3,3,1,8,9,4,8,1,8,,,26,male,,10,AfD,,8,8,,,,,,,,,,,,,,,1,symmetric,9,21,NSQ,RAND,109,9,1,1,1,0,.5,.5,NSQ vs. RAND,positive,,,0,1,1_1,0,1,1,0,Value 3,0,,,0,1,symmetric,1,,1,,,3,,0
141210_1516,13,10,7,.29084814,.24041927,-3,-1,-1,AGV,AGV,2,-1,0,0,-1,-1,-1,-1,-1,1,-1,-1,-1,-1,,0,31,32,0,,,1,-1,1,0,0,,24,,2,2,2,10.695986,3,90,1,-3,-1,-1,10,11,21,4,21,11,21,,,19,female,,6,CDU/CSU,,6,4,,,,,,,,,,,,,,,1,symmetric,9,21,SM,AGV,110,-5,0,0,0,0,.5,0,AGV vs. SM,negative,0,1,1,3,1_2,1,0,0,1,Value -3,1,1,0,,,symmetric,1,1,0,1,,3,,1
141210_1516,9,10,7,.50329518,.32420892,-1,-10,-30,SM,AGV,1,No,1,0,-2,-1,-1,-1,-1,-1,-1,-1,-1,-1,,0,30,0,36,,,0,-10,-10,0,0,,21,,2,2,2,10.935295,2,,1,-1,-3,1,10,17,19,4,19,17,19,,,19,female,,6,CDU/CSU,,6,4,,,,,,,,,,,,,,,1,symmetric,9,21,AGV,SM,110,-3,0,0,0,0,.5,0,AGV vs. SM,negative,,,1,2,1_2,0,1,0,1,Value -1,1,1,0,,,symmetric,1,1,1,,,1,,0
141210_1516,1,10,4,.35469764,.22970735,-3,-10,-30,SM,SM,1,No,2,0,-2,-1,-1,-1,-1,-1,-1,-1,-1,-1,,0,20,0,23,,,1,-10,-10,1,-3,,16,,2,2,2,10.225819,1,,1,-3,1,3,10,19,21,4,21,19,21,,,19,female,,6,CDU/CSU,,6,4,,,,,,,,,,,,,,,1,symmetric,9,21,SM,AGV,110,1,1,1,1,0,.5,1,AGV vs. SM,negative,,,1,1,1_2,0,1,0,1,Value -3,0,0,1,,,symmetric,0,0,1,,,3,,1
141210_1516,16,10,5,.23763028,.13481858,-3,-1,1,AGV,NSQ,1,-1,0,.125,-1,-1,1,-1,-1,-1,-1,-1,-1,-1,,0,21,34,,0,,0,3,-1,1,-2.875,,21,,2,2,2,10.344125,2,,1,-3,1,-3,10,13,15,4,15,13,15,,,19,female,,6,CDU/CSU,,6,4,,,,,,,,,,,,,,,1,symmetric,9,21,NSQ,AGV,110,-5,0,0,0,0,.5,0,AGV vs. NSQ,negative,0,1,1,3,1_2,1,0,0,1,Value -3,0,0,,1,,symmetric,0,0,0,,,3,,1
141210_1516,4,10,5,.65639108,.12347061,-3,-1,-3,AGV,AGV,2,-1,0,.125,-1,-1,-1,-1,-1,-1,1,-1,-1,-1,,0,28,29,,0,,1,1,-3,0,.125,,18,,2,2,2,10.424608,2,,1,-3,3,-3,10,15,17,4,17,15,17,,,19,female,,6,CDU/CSU,,6,4,,,,,,,,,,,,,,,1,symmetric,9,21,NSQ,AGV,110,-3,0,0,0,0,.5,0,AGV vs. NSQ,negative,0,1,1,1,1_2,0,1,0,1,Value -3,1,1,,0,,symmetric,1,1,1,,,3,,1
141210_1516,8,10,4,.0077829421,.55951703,1,-10,-30,NSQ,AGV,1,-1,0,0,-2,-1,-1,-1,-1,-1,-1,-1,-1,-1,,1,28,0,,36,,1,-10,-10,0,0,,19,,2,2,2,10.017522,3,,1,1,3,-1,10,13,16,4,16,13,16,,,19,female,,6,CDU/CSU,,6,4,,,,,,,,,,,,,,,1,symmetric,9,21,AGV,NSQ,110,3,1,1,1,0,.5,1,AGV vs. NSQ,positive,,,1,2,1_2,0,1,1,0,Value 1,1,1,,0,,symmetric,1,1,1,,,1,,0
141210_1516,15,10,7,.73126626,.93255293,3,1,-1,AGV,AGV,1,-1,0,.125,-1,-1,-1,-1,-1,-1,1,-1,-1,-1,,1,27,28,,,0,1,-3,1,0,.125,,4,,2,2,2,10.569795,1,,1,3,-1,1,10,16,17,4,17,16,17,,,19,female,,6,CDU/CSU,,6,4,,,,,,,,,,,,,,,1,symmetric,9,21,AGV,RAND,110,3,1,1,1,0,.5,1,AGV vs. RAND,positive,0,1,1,3,1_2,1,0,1,0,Value 3,1,1,,,0,symmetric,1,1,0,,,3,,0
141210_1516,11,10,5,.36108947,.34039879,-1,-1,-1,AGV,AGV,2,-1,0,0,-1,-1,-1,-1,-1,1,-1,-1,-1,-1,,0,35,34,,,0,1,1,-1,0,0,,21,,2,2,2,10.203487,2,,1,-1,-3,-3,10,14,21,4,21,14,21,,,19,female,,6,CDU/CSU,,6,4,,,,,,,,,,,,,,,1,symmetric,9,21,RAND,AGV,110,-7,0,0,0,0,.5,0,AGV vs. RAND,negative,1,1,1,2,1_2,0,1,0,1,Value -1,1,1,,,0,symmetric,1,1,1,,,1,,1
141210_1516,3,10,4,.8973639,.40750566,-1,-1,-3,AGV,AGV,1,-1,0,0,-1,-1,-1,-1,-1,-1,-1,1,-1,-1,,0,31,24,,,0,1,-1,-1,0,0,,16,,2,2,2,10.244042,1,,1,-1,-1,-1,10,18,19,4,19,18,19,,,19,female,,6,CDU/CSU,,6,4,,,,,,,,,,,,,,,1,symmetric,9,21,AGV,RAND,110,-3,0,0,0,0,.5,0,AGV vs. RAND,negative,1,1,1,1,1_2,0,1,0,1,Value -1,1,1,,,0,symmetric,1,1,1,,,1,,0
141210_1516,18,10,6,.22522199,.33366209,-1,-10,-30,NSQ,NSQ,2,-1,0,0,-2,-1,-1,-1,-1,-1,-1,-1,-1,-1,,0,31,,0,35,,0,-10,-10,0,0,9,24,,2,2,2,10.695808,1,,1,-1,-3,-1,10,12,17,4,17,12,17,7,12,19,female,,6,CDU/CSU,,6,4,,,,,,,,,,,,,,,1,symmetric,9,21,SM,NSQ,110,-5,0,0,0,0,.5,0,SM vs. NSQ,negative,,,1,3,1_2,1,0,0,1,Value -1,0,,0,1,,symmetric,0,0,0,,,1,,0
141210_1516,12,10,6,.72685236,.28286511,-1,-10,-30,SM,SM,2,No,2,0,-2,-1,-1,-1,-1,-1,-1,-1,-1,-1,,0,28,,39,,,1,-10,-10,1,-1,,23,,2,2,2,10.312304,2,,1,-1,1,3,10,14,19,4,19,14,19,,,19,female,,6,CDU/CSU,,6,4,,,,,,,,,,,,,,,1,symmetric,9,21,NSQ,SM,110,3,1,1,1,0,.5,1,SM vs. NSQ,negative,,,1,2,1_2,0,1,0,1,Value -1,1,,1,0,,symmetric,1,1,1,,,1,,1
141210_1516,6,10,7,.41479889,.86173201,3,-10,-30,SM,SM,1,Yes,3,0,-2,-1,-1,-1,-1,-1,-1,-1,-1,-1,,1,31,,36,,,1,-10,-10,1,3,,17,,2,2,2,10.870157,2,,1,3,-3,3,10,14,20,4,20,14,20,,,19,female,,6,CDU/CSU,,6,4,,,,,,,,,,,,,,,1,symmetric,9,21,SM,NSQ,110,3,1,1,1,0,.5,1,SM vs. NSQ,positive,,,1,1,1_2,0,1,1,0,Value 3,1,,1,0,,symmetric,1,1,1,,,3,,0
141210_1516,14,10,6,.43038431,.75483632,3,-10,-30,SM,SM,1,Yes,2,0,-2,-1,-1,-1,-1,-1,-1,-1,-1,-1,,1,31,,36,,0,1,-10,-10,1,3,,23,,2,2,2,10.546612,3,,1,3,3,-3,10,13,20,4,20,13,20,,,19,female,,6,CDU/CSU,,6,4,,,,,,,,,,,,,,,1,symmetric,9,21,SM,RAND,110,3,1,1,1,0,.5,1,SM vs. RAND,positive,,,1,3,1_2,1,0,1,0,Value 3,1,,1,,0,symmetric,1,1,0,,,3,,0
141210_1516,2,10,4,.93303818,.28942981,-1,-10,-30,RAND,RAND,2,-1,0,0,-2,-1,-1,-1,-1,-1,-1,-1,-1,-1,,0,28,,0,,34,0,-10,-10,0,0,,22,,2,2,2,10.137065,1,,1,-1,1,-3,10,14,16,4,16,14,16,,,19,female,,6,CDU/CSU,,6,4,,,,,,,,,,,,,,,1,symmetric,9,21,SM,RAND,110,-3,0,0,0,0,.5,.5,SM vs. RAND,negative,,,1,1,1_2,0,1,0,1,Value -1,0,,0,,1,symmetric,0,0,0,,,1,,0
141210_1516,7,10,5,.65295637,.19915785,-3,-10,-30,SM,SM,2,No,2,0,-2,-1,-1,-1,-1,-1,-1,-1,-1,-1,,0,31,,36,,0,1,-10,-10,1,-3,,22,,2,2,2,10.571369,1,,1,-3,1,3,10,18,21,4,21,18,21,,,19,female,,6,CDU/CSU,,6,4,,,,,,,,,,,,,,,1,symmetric,9,21,RAND,SM,110,1,1,1,1,0,.5,1,SM vs. RAND,negative,,,1,2,1_2,0,1,0,1,Value -3,1,,1,,0,symmetric,1,1,0,,,3,,1
141210_1516,17,10,5,.44567722,.3663905,-1,-10,-30,RAND,NSQ,1,-1,0,0,-2,-1,-1,-1,-1,-1,-1,-1,-1,-1,,0,32,,,0,36,0,-10,-10,0,0,,24,,2,2,2,10.475422,3,,1,-1,-1,1,10,13,19,4,19,13,19,,,19,female,,6,CDU/CSU,,6,4,,,,,,,,,,,,,,,1,symmetric,9,21,NSQ,RAND,110,-1,0,0,0,0,.5,0,NSQ vs. RAND,negative,,,1,3,1_2,1,0,0,1,Value -1,1,,,1,0,symmetric,1,,0,,,1,,0
141210_1516,10,10,6,.71494913,.30886784,-1,-10,-30,RAND,RAND,1,-1,0,0,-2,-1,-1,-1,-1,-1,-1,-1,-1,-1,,0,35,,,0,38,1,-10,-10,1,-1,,21,,2,2,2,10.451587,1,,1,-1,-1,-3,10,13,15,4,15,13,15,,,19,female,,6,CDU/CSU,,6,4,,,,,,,,,,,,,,,1,symmetric,9,21,RAND,NSQ,110,-5,0,0,0,0,.5,.5,NSQ vs. RAND,negative,,,1,2,1_2,0,1,0,1,Value -1,0,,,0,1,symmetric,1,,1,,,1,,1
141210_1516,5,10,6,.18723299,.0030072853,-3,-10,-30,RAND,NSQ,1,-1,0,0,-2,-1,-1,-1,-1,-1,-1,-1,-1,-1,,0,18,,,0,38,0,-10,-10,0,0,,22,,2,2,2,10.728892,3,,1,-3,1,-3,10,14,21,4,21,14,21,,,19,female,,6,CDU/CSU,,6,4,,,,,,,,,,,,,,,1,symmetric,9,21,NSQ,RAND,110,-5,0,0,0,0,.5,0,NSQ vs. RAND,negative,,,1,1,1_2,0,1,0,1,Value -3,1,,,1,0,symmetric,1,,1,,,3,,0
141210_1516,13,11,7,.69148862,.33491892,-1,-1,-1,AGV,AGV,2,-1,0,0,-1,-1,-1,-1,-1,1,-1,-1,-1,-1,,0,28,38,0,,,0,-1,1,0,0,,24,,2,2,2,10.669522,1,91,1,-3,-1,-1,10,11,21,4,21,10,21,,,19,female,,5,Bündnis 90 / Die Grünen,,4,4,,,,,,,,,,,,,,,1,symmetric,9,21,SM,AGV,111,-5,0,0,0,0,.5,0,AGV vs. SM,negative,1,1,1,3,1_2,1,0,0,1,Value -1,1,1,0,,,symmetric,1,1,0,0,,1,,1
141210_1516,1,11,5,.30512607,.14241162,-3,-10,-30,SM,SM,1,No,1,0,-2,-1,-1,-1,-1,-1,-1,-1,-1,-1,,0,27,0,30,,,1,-10,-10,0,0,,23,,2,2,2,10.390746,3,,1,-3,-3,1,11,15,18,4,18,15,18,,,19,female,,5,Bündnis 90 / Die Grünen,,4,4,,,,,,,,,,,,,,,1,symmetric,9,21,SM,AGV,111,-5,0,0,0,0,.5,0,AGV vs. SM,negative,,,1,1,1_2,0,1,0,1,Value -3,0,0,1,,,symmetric,0,0,0,,,3,,1
141210_1516,9,11,5,.5389871,.47627604,-1,-10,-30,SM,SM,2,No,2,0,-2,-1,-1,-1,-1,-1,-1,-1,-1,-1,,0,35,0,38,,,0,-10,-10,1,-1,,22,,2,2,2,10.591521,2,,1,-1,3,3,11,13,20,4,20,13,20,,,19,female,,5,Bündnis 90 / Die Grünen,,4,4,,,,,,,,,,,,,,,1,symmetric,9,21,AGV,SM,111,5,1,1,1,0,.5,1,AGV vs. SM,negative,,,1,2,1_2,0,1,0,1,Value -1,0,0,1,,,symmetric,0,0,0,,,1,,0
141210_1516,16,11,6,.52491045,.77087283,3,-10,-30,NSQ,AGV,2,-1,0,0,-2,-1,-1,-1,-1,-1,-1,-1,-1,-1,,1,35,0,,36,,1,-10,-10,0,0,,25,,2,2,2,10.400178,2,,1,3,-3,-3,11,12,14,4,14,12,14,,,19,female,,5,Bündnis 90 / Die Grünen,,4,4,,,,,,,,,,,,,,,1,symmetric,9,21,NSQ,AGV,111,-3,0,0,0,0,.5,0,AGV vs. NSQ,positive,,,1,3,1_2,1,0,1,0,Value 3,1,1,,0,,symmetric,1,1,0,,,3,,1
141210_1516,4,11,7,.082044564,.55595833,1,3,3,AGV,AGV,2,-1,0,0,-1,-1,-1,1,-1,-1,-1,-1,-1,-1,,1,35,33,,0,,1,3,-3,1,1,,-1,,2,2,2,10.9114,3,,1,1,1,-3,11,13,19,4,19,13,19,,,19,female,,5,Bündnis 90 / Die Grünen,,4,4,,,,,,,,,,,,,,,1,symmetric,9,21,NSQ,AGV,111,-1,0,0,1,0,.5,0,AGV vs. NSQ,positive,0,1,1,1,1_2,0,1,1,0,Value 1,1,1,,0,,symmetric,1,1,1,,,1,,1
141210_1516,8,11,5,.46996337,.55347776,1,3,3,AGV,AGV,1,-1,0,-.25,-1,-1,-1,-1,-1,1,-1,-1,-1,-1,,1,36,32,,0,,0,1,-1,1,.75,,23,,2,2,2,10.445829,1,,1,1,1,-3,11,14,21,4,21,14,21,,,19,female,,5,Bündnis 90 / Die Grünen,,4,4,,,,,,,,,,,,,,,1,symmetric,9,21,AGV,NSQ,111,-1,0,0,1,0,.5,0,AGV vs. NSQ,positive,0,1,1,2,1_2,0,1,1,0,Value 1,1,1,,0,,symmetric,1,1,1,,,1,,0
141210_1516,15,11,6,.47611907,.13321066,-3,-3,-1,AGV,AGV,1,-1,0,-.125,-1,-1,1,-1,-1,-1,-1,-1,-1,-1,,0,30,36,,,0,0,3,-1,0,-.125,,23,,2,2,2,10.465092,3,,1,-3,3,-1,11,12,19,4,19,12,19,,,19,female,,5,Bündnis 90 / Die Grünen,,4,4,,,,,,,,,,,,,,,1,symmetric,9,21,AGV,RAND,111,-1,0,0,0,0,.5,0,AGV vs. RAND,negative,1,1,1,3,1_2,1,0,0,1,Value -3,1,1,,,0,symmetric,1,1,0,,,3,,0
141210_1516,3,11,6,.57092088,.46697557,-1,-1,5,AGV,AGV,1,-1,0,.25,1,-1,-1,-1,-1,-1,-1,-1,-1,-1,,0,34,26,,,0,1,3,3,1,-.75,,17,,2,2,2,10.502635,2,,1,-1,1,3,11,16,17,4,17,16,17,,,19,female,,5,Bündnis 90 / Die Grünen,,4,4,,,,,,,,,,,,,,,1,symmetric,9,21,AGV,RAND,111,3,1,1,1,0,.5,1,AGV vs. RAND,negative,1,1,1,1,1_2,0,1,0,1,Value -1,1,1,,,0,symmetric,1,1,1,,,1,,0
141210_1516,11,11,4,.7179907,.66440874,1,1,-1,AGV,AGV,2,-1,0,.125,-1,-1,-1,-1,-1,-1,1,-1,-1,-1,,1,36,34,,,0,0,1,-3,0,.125,,23,,2,2,2,10.040554,1,,1,1,1,-3,11,18,19,4,19,18,19,,,19,female,,5,Bündnis 90 / Die Grünen,,4,4,,,,,,,,,,,,,,,1,symmetric,9,21,RAND,AGV,111,-1,0,0,1,0,.5,0,AGV vs. RAND,positive,1,1,1,2,1_2,0,1,1,0,Value 1,1,1,,,0,symmetric,1,1,1,,,1,,1
141210_1516,18,11,4,.83831865,.54919219,1,-10,-30,SM,SM,1,Yes,3,0,-2,-1,-1,-1,-1,-1,-1,-1,-1,-1,,1,35,,39,0,,0,-10,-10,1,1,9,25,,2,2,2,10.1285,2,,1,1,3,1,11,15,18,4,18,15,18,7,23,19,female,,5,Bündnis 90 / Die Grünen,,4,4,,,,,,,,,,,,,,,1,symmetric,9,21,SM,NSQ,111,5,1,1,1,0,.5,1,SM vs. NSQ,positive,,,1,3,1_2,1,0,1,0,Value 1,1,,1,0,,symmetric,1,1,0,,,1,,0
141210_1516,6,11,5,.36674094,.91570449,3,-10,-30,SM,SM,1,Yes,3,0,-2,-1,-1,-1,-1,-1,-1,-1,-1,-1,,1,36,,38,,,0,-10,-10,1,3,,20,,2,2,2,10.192529,2,,1,3,3,3,11,13,18,4,18,13,18,,,19,female,,5,Bündnis 90 / Die Grünen,,4,4,,,,,,,,,,,,,,,1,symmetric,9,21,SM,NSQ,111,9,1,1,1,0,.5,1,SM vs. NSQ,positive,,,1,1,1_2,0,1,1,0,Value 3,1,,1,0,,symmetric,1,1,1,,,3,,0
141210_1516,12,11,4,.6532374,.60654312,1,-10,-30,SM,SM,2,Yes,1,0,-2,-1,-1,-1,-1,-1,-1,-1,-1,-1,,1,34,,38,,,1,-10,-10,0,0,,22,,2,2,2,10.022495,1,,1,1,-3,-3,11,12,16,4,16,12,16,,,19,female,,5,Bündnis 90 / Die Grünen,,4,4,,,,,,,,,,,,,,,1,symmetric,9,21,NSQ,SM,111,-5,0,0,0,0,.5,0,SM vs. NSQ,positive,,,1,2,1_2,0,1,1,0,Value 1,1,,1,0,,symmetric,1,1,1,,,1,,1
141210_1516,14,11,5,.53596157,.012428271,-3,-10,-30,SM,SM,1,No,2,0,-2,-1,-1,-1,-1,-1,-1,-1,-1,-1,,0,34,,38,,0,0,-10,-10,1,-3,,22,,2,2,2,10.407198,2,,1,-3,1,1,11,17,18,4,18,17,18,,,19,female,,5,Bündnis 90 / Die Grünen,,4,4,,,,,,,,,,,,,,,1,symmetric,9,21,SM,RAND,111,-1,0,0,1,0,.5,1,SM vs. RAND,negative,,,1,3,1_2,1,0,0,1,Value -3,1,,1,,0,symmetric,1,1,0,,,3,,0
141210_1516,7,11,6,.40793642,.08158467,-3,-10,-30,SM,SM,2,No,0,0,-2,-1,-1,-1,-1,-1,-1,-1,-1,-1,,0,36,,38,,0,0,-10,-10,0,0,,23,,2,2,2,10.632421,2,,1,-3,-3,-3,11,16,17,4,17,16,17,,,19,female,,5,Bündnis 90 / Die Grünen,,4,4,,,,,,,,,,,,,,,1,symmetric,9,21,RAND,SM,111,-9,0,0,0,0,.5,0,SM vs. RAND,negative,,,1,2,1_2,0,1,0,1,Value -3,1,,1,,0,symmetric,1,1,1,,,3,,1
141210_1516,2,11,5,.57253802,.060907338,-3,-10,-30,SM,SM,1,No,0,0,-2,-1,-1,-1,-1,-1,-1,-1,-1,-1,,0,30,,37,,0,0,-10,-10,0,0,,24,,2,2,2,10.574435,2,,1,-3,-3,-3,11,15,17,4,17,15,17,,,19,female,,5,Bündnis 90 / Die Grünen,,4,4,,,,,,,,,,,,,,,1,symmetric,9,21,SM,RAND,111,-9,0,0,0,0,.5,0,SM vs. RAND,negative,,,1,1,1_2,0,1,0,1,Value -3,1,,1,,0,symmetric,1,1,1,,,3,,0
141210_1516,17,11,4,.77901244,.82273394,3,-10,-30,NSQ,RAND,2,-1,0,0,-2,-1,-1,-1,-1,-1,-1,-1,-1,-1,,1,34,,,39,0,1,-10,-10,0,0,,25,,2,2,2,10.285474,2,,1,3,-1,-3,11,16,21,4,21,16,21,,,19,female,,5,Bündnis 90 / Die Grünen,,4,4,,,,,,,,,,,,,,,1,symmetric,9,21,NSQ,RAND,111,-1,0,0,0,0,.5,.5,NSQ vs. RAND,positive,,,1,3,1_2,1,0,1,0,Value 3,0,,,0,1,symmetric,1,,0,,,3,,0
141210_1516,10,11,4,.59653842,.27203986,-1,-10,-30,RAND,RAND,1,-1,0,0,-2,-1,-1,-1,-1,-1,-1,-1,-1,-1,,0,34,,,0,38,0,-10,-10,0,0,,24,,2,2,2,10.321268,1,,1,-1,-3,1,11,16,17,4,17,16,17,,,19,female,,5,Bündnis 90 / Die Grünen,,4,4,,,,,,,,,,,,,,,1,symmetric,9,21,RAND,NSQ,111,-3,0,0,0,0,.5,.5,NSQ vs. RAND,negative,,,1,2,1_2,0,1,0,1,Value -1,0,,,0,1,symmetric,1,,1,,,1,,1
141210_1516,5,11,5,.74993432,.41852826,-1,-10,-30,RAND,RAND,2,-1,0,0,-2,-1,-1,-1,-1,-1,-1,-1,-1,-1,,0,33,,,0,38,0,-10,-10,0,0,,23,,2,2,2,10.335763,1,,1,-1,-1,-3,11,18,19,4,19,18,19,,,19,female,,5,Bündnis 90 / Die Grünen,,4,4,,,,,,,,,,,,,,,1,symmetric,9,21,NSQ,RAND,111,-5,0,0,0,0,.5,.5,NSQ vs. RAND,negative,,,1,1,1_2,0,1,0,1,Value -1,0,,,0,1,symmetric,1,,1,,,1,,0
141210_1516,13,12,6,.94971949,.33244756,-1,-10,-30,SM,SM,1,No,2,0,-2,-1,-1,-1,-1,-1,-1,-1,-1,-1,,0,31,0,37,,,0,-10,-10,1,-1,,24,,2,2,2,10.656068,2,99,1,-1,3,3,12,13,20,4,20,13,20,,,22,male,,6,SPD,,7,7,,,,,,,,,,,,,,,1,symmetric,9,21,SM,AGV,112,5,1,1,1,0,.5,1,AGV vs. SM,negative,,,1,3,1_2,1,0,0,1,Value -1,0,0,1,,,symmetric,0,0,0,0,,1,,1
141210_1516,9,12,4,.77144843,.33733821,-1,-10,-30,SM,SM,2,No,1,0,-2,-1,-1,-1,-1,-1,-1,-1,-1,-1,,0,36,0,37,,,0,-10,-10,0,0,,24,,2,2,2,10.258474,1,,1,-1,-3,1,12,15,18,4,18,15,18,,,22,male,,6,SPD,,7,7,,,,,,,,,,,,,,,1,symmetric,9,21,AGV,SM,112,-3,0,0,0,0,.5,0,AGV vs. SM,negative,,,1,2,1_2,0,1,0,1,Value -1,0,0,1,,,symmetric,0,0,0,,,1,,0
141210_1516,1,12,6,.70222729,.38781318,-1,-10,-30,SM,SM,1,No,1,0,-2,-1,-1,-1,-1,-1,-1,-1,-1,-1,,0,29,0,31,,,0,-10,-10,0,0,,22,,2,2,2,10.398967,1,,1,-1,-1,3,12,13,20,4,20,13,20,,,22,male,,6,SPD,,7,7,,,,,,,,,,,,,,,1,symmetric,9,21,SM,AGV,112,1,1,1,0,0,.5,0,AGV vs. SM,negative,,,1,1,1_2,0,1,0,1,Value -1,0,0,1,,,symmetric,0,0,0,,,1,,1
141210_1516,16,12,6,.82704467,.12350633,-3,-10,-30,NSQ,NSQ,1,-1,0,0,-2,-1,-1,-1,-1,-1,-1,-1,-1,-1,,0,36,0,,38,,1,-10,-10,0,0,,22,,2,2,2,10.627736,1,,1,3,-3,-3,11,12,14,4,14,11,14,,,22,male,,6,SPD,,7,7,,,,,,,,,,,,,,,1,symmetric,9,21,NSQ,AGV,112,-3,0,0,0,0,.5,0,AGV vs. NSQ,negative,,,1,3,1_2,1,0,0,1,Value -3,0,0,,1,,symmetric,0,0,0,,,3,,1
141210_1516,8,12,7,.51882184,.23446968,-3,-3,-7,AGV,NSQ,2,-1,0,-.125,-1,-1,-1,-1,-1,-1,-1,-1,1,-1,,0,34,35,,0,,1,-3,-1,0,-.125,,17,,2,2,2,10.842874,3,,1,-3,-3,-1,12,17,19,4,19,17,19,,,22,male,,6,SPD,,7,7,,,,,,,,,,,,,,,1,symmetric,9,21,AGV,NSQ,112,-7,0,0,0,0,.5,0,AGV vs. NSQ,negative,1,1,1,2,1_2,0,1,0,1,Value -3,0,0,,1,,symmetric,0,0,0,,,3,,0
141210_1516,4,12,6,.45726565,.29744428,-1,-1,3,AGV,NSQ,1,-1,0,.125,-1,1,-1,-1,-1,-1,-1,-1,-1,-1,,0,31,34,,0,,0,3,1,1,-.875,,21,,2,2,2,10.675211,2,,1,-1,1,1,12,16,18,4,18,16,18,,,22,male,,6,SPD,,7,7,,,,,,,,,,,,,,,1,symmetric,9,21,NSQ,AGV,112,1,1,1,1,0,.5,0,AGV vs. NSQ,negative,1,1,1,1,1_2,0,1,0,1,Value -1,0,0,,1,,symmetric,0,0,0,,,1,,1
141210_1516,15,12,6,.64110661,.84029782,3,3,-1,AGV,AGV,1,-1,0,-.125,-1,-1,-1,-1,-1,-1,-1,-1,1,-1,,1,34,38,,,0,1,-3,-1,0,-.125,,22,,2,2,2,10.512811,2,,1,-3,3,-1,11,12,19,4,19,11,19,,,22,male,,6,SPD,,7,7,,,,,,,,,,,,,,,1,symmetric,9,21,AGV,RAND,112,-1,0,0,0,0,.5,0,AGV vs. RAND,positive,1,1,1,3,1_2,1,0,1,0,Value 3,1,1,,,0,symmetric,1,1,0,,,3,,0
141210_1516,11,12,7,.72298086,.85588175,3,-10,-30,RAND,RAND,1,-1,0,0,-2,-1,-1,-1,-1,-1,-1,-1,-1,-1,,1,37,0,,,39,0,-10,-10,0,0,,23,,2,2,2,10.992144,1,,1,3,-1,-1,12,17,20,4,20,17,20,,,22,male,,6,SPD,,7,7,,,,,,,,,,,,,,,1,symmetric,9,21,RAND,AGV,112,1,1,1,0,0,.5,.5,AGV vs. RAND,positive,,,1,2,1_2,0,1,1,0,Value 3,0,0,,,1,symmetric,0,0,0,,,3,,1
141210_1516,3,12,5,.051602092,.6967839,1,3,3,AGV,RAND,2,-1,0,-.25,-1,-1,-1,-1,-1,1,-1,-1,-1,-1,,1,36,32,,,0,0,1,-1,1,.75,,20,,2,2,2,10.501652,3,,1,1,3,-3,12,14,15,4,15,14,15,,,22,male,,6,SPD,,7,7,,,,,,,,,,,,,,,1,symmetric,9,21,AGV,RAND,112,1,1,1,1,0,.5,.5,AGV vs. RAND,positive,0,1,1,1,1_2,0,1,1,0,Value 1,0,0,,,1,symmetric,0,0,0,,,1,,0
141210_1516,18,12,6,.0071836426,.043758139,-3,-10,-30,NSQ,NSQ,2,-1,0,0,-2,-1,-1,-1,-1,-1,-1,-1,-1,-1,,0,36,,0,39,,1,-10,-10,0,0,9,25,,2,2,2,10.691126,3,,1,-1,-3,-1,10,12,17,4,17,10,17,7,24,22,male,,6,SPD,,7,7,,,,,,,,,,,,,,,1,symmetric,9,21,SM,NSQ,112,-5,0,0,0,0,.5,0,SM vs. NSQ,negative,,,1,3,1_2,1,0,0,1,Value -3,0,,0,1,,symmetric,0,0,0,,,3,,0
141210_1516,12,12,4,.59930468,.10179877,-3,-10,-30,SM,SM,2,No,1,0,-2,-1,-1,-1,-1,-1,-1,-1,-1,-1,,0,35,,38,,,1,-10,-10,0,0,,24,,2,2,2,10.100019,2,,1,1,-3,-3,11,12,16,4,16,11,16,,,22,male,,6,SPD,,7,7,,,,,,,,,,,,,,,1,symmetric,9,21,NSQ,SM,112,-5,0,0,0,0,.5,0,SM vs. NSQ,negative,,,1,2,1_2,0,1,0,1,Value -3,1,,1,0,,symmetric,1,1,1,,,3,,1
141210_1516,6,12,6,.56299084,.58897835,1,-10,-30,SM,SM,1,Yes,2,0,-2,-1,-1,-1,-1,-1,-1,-1,-1,-1,,1,35,,38,,,0,-10,-10,1,1,,22,,2,2,2,10.48964,2,,1,1,1,-3,12,15,17,4,17,15,17,,,22,male,,6,SPD,,7,7,,,,,,,,,,,,,,,1,symmetric,9,21,SM,NSQ,112,-1,0,0,1,0,.5,1,SM vs. NSQ,positive,,,1,1,1_2,0,1,1,0,Value 1,1,,1,0,,symmetric,1,1,1,,,1,,0
141210_1516,14,12,7,.30156413,.018745443,-3,-10,-30,SM,SM,1,No,1,0,-2,-1,-1,-1,-1,-1,-1,-1,-1,-1,,0,34,,37,,0,0,-10,-10,0,0,,25,,2,2,2,10.830398,2,,1,-3,-1,-1,12,14,21,4,21,14,21,,,22,male,,6,SPD,,7,7,,,,,,,,,,,,,,,1,symmetric,9,21,SM,RAND,112,-5,0,0,0,0,.5,0,SM vs. RAND,negative,,,1,3,1_2,1,0,0,1,Value -3,1,,1,,0,symmetric,1,1,0,,,3,,0
141210_1516,7,12,7,.65752798,.089067765,-3,-10,-30,SM,SM,2,No,1,0,-2,-1,-1,-1,-1,-1,-1,-1,-1,-1,,0,33,,37,,0,0,-10,-10,0,0,,22,,2,2,2,10.933733,1,,1,-3,1,-3,12,14,19,4,19,14,19,,,22,male,,6,SPD,,7,7,,,,,,,,,,,,,,,1,symmetric,9,21,RAND,SM,112,-5,0,0,0,0,.5,0,SM vs. RAND,negative,,,1,2,1_2,0,1,0,1,Value -3,1,,1,,0,symmetric,1,1,1,,,3,,1
141210_1516,2,12,7,.64693856,.89695811,3,-10,-30,SM,SM,1,Yes,1,0,-2,-1,-1,-1,-1,-1,-1,-1,-1,-1,,1,29,,34,,0,0,-10,-10,0,0,,23,,2,2,2,10.950754,1,,1,3,-3,-1,12,18,20,4,20,18,20,,,22,male,,6,SPD,,7,7,,,,,,,,,,,,,,,1,symmetric,9,21,SM,RAND,112,-1,0,0,0,0,.5,0,SM vs. RAND,positive,,,1,1,1_2,0,1,1,0,Value 3,1,,1,,0,symmetric,1,1,1,,,3,,0
141210_1516,17,12,7,.85808402,.088457026,-3,-10,-30,NSQ,NSQ,1,-1,0,0,-2,-1,-1,-1,-1,-1,-1,-1,-1,-1,,0,34,,,38,0,1,-10,-10,0,0,,23,,2,2,2,10.903995,2,,1,-3,1,-3,12,17,18,4,18,17,18,,,22,male,,6,SPD,,7,7,,,,,,,,,,,,,,,1,symmetric,9,21,NSQ,RAND,112,-5,0,0,0,0,.5,0,NSQ vs. RAND,negative,,,1,3,1_2,1,0,0,1,Value -3,1,,,1,0,symmetric,1,,0,,,3,,0
141210_1516,10,12,7,.8446523,.14202571,-3,-10,-30,RAND,RAND,1,-1,0,0,-2,-1,-1,-1,-1,-1,-1,-1,-1,-1,,0,35,,,0,36,1,-10,-10,1,-3,,24,,2,2,2,10.935347,1,,1,-3,-3,1,12,18,21,4,21,18,21,,,22,male,,6,SPD,,7,7,,,,,,,,,,,,,,,1,symmetric,9,21,RAND,NSQ,112,-5,0,0,0,0,.5,.5,NSQ vs. RAND,negative,,,1,2,1_2,0,1,0,1,Value -3,0,,,0,1,symmetric,1,,1,,,3,,1
141210_1516,5,12,4,.63287646,.46483719,-1,-10,-30,RAND,RAND,2,-1,0,0,-2,-1,-1,-1,-1,-1,-1,-1,-1,-1,,0,37,,,0,37,0,-10,-10,0,0,,24,,2,2,2,10.117442,1,,1,-1,3,-3,12,16,17,4,17,16,17,,,22,male,,6,SPD,,7,7,,,,,,,,,,,,,,,1,symmetric,9,21,NSQ,RAND,112,-1,0,0,0,0,.5,.5,NSQ vs. RAND,negative,,,1,1,1_2,0,1,0,1,Value -1,0,,,0,1,symmetric,1,,1,,,1,,0
141210_1516,13,13,6,.60386682,.82165235,3,-10,-30,SM,AGV,2,Yes,2,0,-2,-1,-1,-1,-1,-1,-1,-1,-1,-1,,1,15,0,38,,,0,-10,-10,1,3,,24,,2,2,2,10.567474,3,102,1,-1,3,3,12,13,20,4,20,12,20,,,19,male,,9,CDU/CSU,,6,4,,,,,,,,,,,,,,,1,symmetric,9,21,SM,AGV,113,5,1,1,1,0,.5,1,AGV vs. SM,positive,,,1,3,1_2,1,0,1,0,Value 3,1,1,0,,,symmetric,1,1,0,1,,3,,1
141210_1516,1,13,6,.39591077,.33171678,-1,-10,-30,SM,SM,1,No,1,0,-2,-1,-1,-1,-1,-1,-1,-1,-1,-1,,0,7,0,28,,,0,-10,-10,0,0,,20,,2,2,2,10.416567,2,,1,-1,-1,3,12,13,20,4,20,12,20,,,19,male,,9,CDU/CSU,,6,4,,,,,,,,,,,,,,,1,symmetric,9,21,SM,AGV,113,1,1,1,0,0,.5,0,AGV vs. SM,negative,,,1,1,1_2,0,1,0,1,Value -1,0,0,1,,,symmetric,0,0,0,,,1,,1
141210_1516,9,13,5,.85267532,.88255465,3,-10,-30,SM,SM,2,Yes,2,0,-2,-1,-1,-1,-1,-1,-1,-1,-1,-1,,1,35,0,38,,,0,-10,-10,1,3,,24,,2,2,2,10.38676,1,,1,-1,3,3,11,13,20,4,20,11,20,,,19,male,,9,CDU/CSU,,6,4,,,,,,,,,,,,,,,1,symmetric,9,21,AGV,SM,113,5,1,1,1,0,.5,1,AGV vs. SM,positive,,,1,2,1_2,0,1,1,0,Value 3,0,0,1,,,symmetric,0,0,0,,,3,,0
141210_1516,16,13,5,.61501402,.73148185,1,3,1,AGV,AGV,2,-1,0,-.25,-1,-1,-1,-1,-1,-1,-1,1,-1,-1,,1,37,39,,0,,1,-1,-1,1,.75,,25,,2,2,2,10.364344,1,,1,-3,1,-3,10,13,15,4,15,10,15,,,19,male,,9,CDU/CSU,,6,4,,,,,,,,,,,,,,,1,symmetric,9,21,NSQ,AGV,113,-5,0,0,0,0,.5,0,AGV vs. NSQ,positive,0,1,1,3,1_2,1,0,1,0,Value 1,1,1,,0,,symmetric,1,1,0,,,1,,1
141210_1516,4,13,7,.083590053,.55402482,1,3,3,AGV,NSQ,1,-1,0,0,-1,-1,-1,1,-1,-1,-1,-1,-1,-1,,1,28,32,,0,,0,3,-3,1,1,,3,,2,2,2,10.888799,2,,1,1,1,-3,11,13,19,4,19,11,19,,,19,male,,9,CDU/CSU,,6,4,,,,,,,,,,,,,,,1,symmetric,9,21,NSQ,AGV,113,-1,0,0,1,0,.5,0,AGV vs. NSQ,positive,0,1,1,1,1_2,0,1,1,0,Value 1,0,0,,1,,symmetric,0,0,0,,,1,,1
141210_1516,8,13,4,.2195511,.92861545,3,-10,-30,NSQ,NSQ,2,-1,0,0,-2,-1,-1,-1,-1,-1,-1,-1,-1,-1,,1,31,0,,35,,1,-10,-10,0,0,,19,,2,2,2,10.222383,1,,1,1,3,-1,10,13,16,4,16,10,16,,,19,male,,9,CDU/CSU,,6,4,,,,,,,,,,,,,,,1,symmetric,9,21,AGV,NSQ,113,3,1,1,1,0,.5,0,AGV vs. NSQ,positive,,,1,2,1_2,0,1,1,0,Value 3,0,0,,1,,symmetric,0,0,0,,,3,,0
141210_1516,15,13,4,.41704649,.99828714,3,3,1,AGV,AGV,1,-1,0,-.25,-1,-1,-1,-1,-1,-1,-1,1,-1,-1,,1,35,38,,,0,0,-1,-1,1,2.75,,22,,2,2,2,10.250858,2,,1,3,-1,-3,13,18,21,4,21,18,21,,,19,male,,9,CDU/CSU,,6,4,,,,,,,,,,,,,,,1,symmetric,9,21,AGV,RAND,113,-1,0,0,0,0,.5,0,AGV vs. RAND,positive,1,1,1,3,1_2,1,0,1,0,Value 3,1,1,,,0,symmetric,1,1,0,,,3,,0
141210_1516,11,13,6,.9535169,.89477503,3,3,-1,AGV,AGV,2,-1,0,-.125,-1,-1,-1,-1,-1,-1,-1,-1,1,-1,,1,37,35,,,0,1,-1,-3,0,-.125,,13,,2,2,2,10.634897,1,,1,3,-1,-1,13,15,16,4,16,15,16,,,19,male,,9,CDU/CSU,,6,4,,,,,,,,,,,,,,,1,symmetric,9,21,RAND,AGV,113,1,1,1,0,0,.5,1,AGV vs. RAND,positive,1,1,1,2,1_2,0,1,1,0,Value 3,1,1,,,0,symmetric,1,1,1,,,3,,1
141210_1516,3,13,7,.93217421,.42115292,-1,-3,-1,AGV,AGV,1,-1,0,-.125,-1,-1,1,-1,-1,-1,-1,-1,-1,-1,,0,33,19,,,0,1,-1,3,0,-.125,,11,,2,2,2,10.883311,1,,1,-1,-3,3,13,20,21,4,21,20,21,,,19,male,,9,CDU/CSU,,6,4,,,,,,,,,,,,,,,1,symmetric,9,21,AGV,RAND,113,-1,0,0,0,0,.5,0,AGV vs. RAND,negative,0,1,1,1,1_2,0,1,0,1,Value -1,1,1,,,0,symmetric,1,1,1,,,1,,0
141210_1516,18,13,7,.62975746,.62123865,1,-10,-30,SM,SM,1,Yes,3,0,-2,-1,-1,-1,-1,-1,-1,-1,-1,-1,,1,36,,39,0,,0,-10,-10,1,1,9,25,,2,2,2,10.735481,1,,1,1,3,3,13,20,21,4,21,20,21,7,25,19,male,,9,CDU/CSU,,6,4,,,,,,,,,,,,,,,1,symmetric,9,21,SM,NSQ,113,7,1,1,1,0,.5,1,SM vs. NSQ,positive,,,1,3,1_2,1,0,1,0,Value 1,1,,1,0,,symmetric,1,1,0,,,1,,0
141210_1516,6,13,5,.91291398,.97857517,3,-10,-30,SM,SM,1,Yes,3,0,-2,-1,-1,-1,-1,-1,-1,-1,-1,-1,,1,31,,36,,,1,-10,-10,1,3,,23,,2,2,2,10.312809,1,,1,3,3,3,11,13,18,4,18,11,18,,,19,male,,9,CDU/CSU,,6,4,,,,,,,,,,,,,,,1,symmetric,9,21,SM,NSQ,113,9,1,1,1,0,.5,1,SM vs. NSQ,positive,,,1,1,1_2,0,1,1,0,Value 3,1,,1,0,,symmetric,1,1,1,,,3,,0
141210_1516,12,13,7,.88381952,.28507662,-1,-10,-30,SM,SM,2,No,2,0,-2,-1,-1,-1,-1,-1,-1,-1,-1,-1,,0,36,,37,,,1,-10,-10,1,-1,,24,,2,2,2,10.586041,2,,1,-1,1,1,13,17,20,4,20,17,20,,,19,male,,9,CDU/CSU,,6,4,,,,,,,,,,,,,,,1,symmetric,9,21,NSQ,SM,113,1,1,1,1,0,.5,1,SM vs. NSQ,negative,,,1,2,1_2,0,1,0,1,Value -1,1,,1,0,,symmetric,1,1,1,,,1,,1
141210_1516,14,13,6,.61291003,.78165555,3,-10,-30,SM,SM,1,Yes,2,0,-2,-1,-1,-1,-1,-1,-1,-1,-1,-1,,1,33,,36,,0,1,-10,-10,1,3,,25,,2,2,2,10.492804,2,,1,3,3,-3,10,13,20,4,20,10,20,,,19,male,,9,CDU/CSU,,6,4,,,,,,,,,,,,,,,1,symmetric,9,21,SM,RAND,113,3,1,1,1,0,.5,1,SM vs. RAND,positive,,,1,3,1_2,1,0,1,0,Value 3,1,,1,,0,symmetric,1,1,0,,,3,,0
141210_1516,2,13,6,.31900841,.56567121,1,-10,-30,SM,SM,1,Yes,3,0,-2,-1,-1,-1,-1,-1,-1,-1,-1,-1,,1,28,,34,,0,1,-10,-10,1,1,,20,,2,2,2,10.631503,2,,1,1,1,1,13,19,21,4,21,19,21,,,19,male,,9,CDU/CSU,,6,4,,,,,,,,,,,,,,,1,symmetric,9,21,SM,RAND,113,3,1,1,1,0,.5,1,SM vs. RAND,positive,,,1,1,1_2,0,1,1,0,Value 1,1,,1,,0,symmetric,1,1,1,,,1,,0
141210_1516,7,13,4,.77832592,.23803319,-3,-10,-30,SM,SM,2,No,0,0,-2,-1,-1,-1,-1,-1,-1,-1,-1,-1,,0,35,,38,,0,0,-10,-10,0,0,,23,,2,2,2,10.013074,1,,1,-3,-3,-3,13,15,20,4,20,15,20,,,19,male,,9,CDU/CSU,,6,4,,,,,,,,,,,,,,,1,symmetric,9,21,RAND,SM,113,-9,0,0,0,0,.5,0,SM vs. RAND,negative,,,1,2,1_2,0,1,0,1,Value -3,1,,1,,0,symmetric,1,1,1,,,3,,1
141210_1516,17,13,5,.48913965,.36771566,-1,-10,-30,RAND,NSQ,1,-1,0,0,-2,-1,-1,-1,-1,-1,-1,-1,-1,-1,,0,35,,,0,39,0,-10,-10,0,0,,24,,2,2,2,10.389805,2,,1,-1,-1,1,10,13,19,4,19,10,19,,,19,male,,9,CDU/CSU,,6,4,,,,,,,,,,,,,,,1,symmetric,9,21,NSQ,RAND,113,-1,0,0,0,0,.5,0,NSQ vs. RAND,negative,,,1,3,1_2,1,0,0,1,Value -1,1,,,1,0,symmetric,1,,0,,,1,,0
141210_1516,5,13,7,.68655074,.70187616,1,-10,-30,RAND,NSQ,1,-1,0,0,-2,-1,-1,-1,-1,-1,-1,-1,-1,-1,,1,33,,,0,32,1,-10,-10,1,1,,22,,2,2,2,10.932347,2,,1,1,1,1,13,15,20,4,20,15,20,,,19,male,,9,CDU/CSU,,6,4,,,,,,,,,,,,,,,1,symmetric,9,21,NSQ,RAND,113,3,1,1,1,0,.5,0,NSQ vs. RAND,positive,,,1,1,1_2,0,1,1,0,Value 1,1,,,1,0,symmetric,1,,1,,,1,,0
141210_1516,10,13,6,.14954963,.44605497,-1,-10,-30,RAND,NSQ,2,-1,0,0,-2,-1,-1,-1,-1,-1,-1,-1,-1,-1,,0,32,,,0,37,1,-10,-10,1,-1,,23,,2,2,2,10.597464,3,,1,-1,-1,-3,10,13,15,4,15,10,15,,,19,male,,9,CDU/CSU,,6,4,,,,,,,,,,,,,,,1,symmetric,9,21,RAND,NSQ,113,-5,0,0,0,0,.5,0,NSQ vs. RAND,negative,,,1,2,1_2,0,1,0,1,Value -1,1,,,1,0,symmetric,1,,1,,,1,,1
141210_1516,13,14,5,.27799934,.59913272,1,1,-3,AGV,AGV,2,-1,0,.125,-1,-1,-1,-1,-1,-1,-1,-1,1,-1,,1,28,29,0,,,0,-1,-3,0,.125,,22,,2,2,2,10.275017,3,92,1,1,-1,-3,14,17,19,4,19,17,19,,,21,female,,3,Nichtwähler,,2,7,,,,,,,,,,,,,,,1,symmetric,9,21,SM,AGV,114,-3,0,0,0,0,.5,0,AGV vs. SM,positive,1,1,0,3,1_2,1,0,1,0,Value 1,1,1,0,,,symmetric,1,1,0,0,,1,,1
141210_1516,1,14,7,.7232365,.92581397,3,-10,-30,SM,SM,1,Yes,1,0,-2,-1,-1,-1,-1,-1,-1,-1,-1,-1,,1,26,0,16,,,1,-10,-10,0,0,,10,,2,2,2,10.955791,1,,1,3,-1,-3,14,16,17,4,17,16,17,,,21,female,,3,Nichtwähler,,2,7,,,,,,,,,,,,,,,1,symmetric,9,21,SM,AGV,114,-1,0,0,0,0,.5,0,AGV vs. SM,positive,,,0,1,1_2,0,1,1,0,Value 3,0,0,1,,,symmetric,0,0,0,,,3,,1
141210_1516,9,14,6,.22959138,.40220487,-1,-10,-30,SM,SM,2,Yes,3,0,-2,-1,-1,-1,-1,-1,-1,-1,-1,-1,,0,33,0,36,,,0,-10,-10,1,-1,,18,,2,2,2,10.758969,2,,1,-1,3,3,14,16,21,4,21,16,21,,,21,female,,3,Nichtwähler,,2,7,,,,,,,,,,,,,,,1,symmetric,9,21,AGV,SM,114,5,1,1,1,0,.5,1,AGV vs. SM,negative,,,0,2,1_2,0,1,0,1,Value -1,0,0,1,,,symmetric,0,0,0,,,1,,0
141210_1516,16,14,6,.14919919,.023418294,-3,-10,-30,NSQ,NSQ,1,-1,0,0,-2,-1,-1,-1,-1,-1,-1,-1,-1,-1,,0,29,0,,40,,0,-10,-10,0,0,,21,,2,2,2,10.661376,3,,1,3,-3,-3,11,12,14,4,12,11,12,,,21,female,,3,Nichtwähler,,2,7,,,,,,,,,,,,,,,1,symmetric,9,21,NSQ,AGV,114,-3,0,0,0,0,.5,0,AGV vs. NSQ,negative,,,0,3,1_2,1,0,0,1,Value -3,0,0,,1,,symmetric,0,0,0,,,3,,1
141210_1516,4,14,4,.49462551,.4076649,-1,-10,-30,NSQ,AGV,2,-1,0,0,-2,-1,-1,-1,-1,-1,-1,-1,-1,-1,,0,28,0,,34,,1,-10,-10,0,0,,23,,2,2,2,10.387209,2,,1,-1,3,-3,14,20,21,4,21,20,21,,,21,female,,3,Nichtwähler,,2,7,,,,,,,,,,,,,,,1,symmetric,9,21,NSQ,AGV,114,-1,0,0,0,0,.5,0,AGV vs. NSQ,negative,,,0,1,1_2,0,1,0,1,Value -1,1,1,,0,,symmetric,1,1,1,,,1,,1
141210_1516,8,14,5,.36797589,.57102376,1,1,3,AGV,AGV,1,-1,0,.125,-1,-1,1,-1,-1,-1,-1,-1,-1,-1,,1,34,35,,0,,0,3,-1,1,1.125,,17,,2,2,2,10.303537,2,,1,1,1,-3,11,14,21,4,21,11,21,,,21,female,,3,Nichtwähler,,2,7,,,,,,,,,,,,,,,1,symmetric,9,21,AGV,NSQ,114,-1,0,0,1,0,.5,0,AGV vs. NSQ,positive,1,1,0,2,1_2,0,1,1,0,Value 1,1,1,,0,,symmetric,1,1,1,,,1,,0
141210_1516,15,14,5,.54626614,.2122816,-3,1,1,AGV,RAND,2,-1,0,0,-1,-1,-1,-1,-1,1,-1,-1,-1,-1,,0,25,31,,,0,0,1,-1,1,-3,,14,,2,2,2,10.301218,2,,1,-3,1,-1,14,15,20,4,20,15,20,,,21,female,,3,Nichtwähler,,2,7,,,,,,,,,,,,,,,1,symmetric,9,21,AGV,RAND,114,-3,0,0,0,0,.5,.5,AGV vs. RAND,negative,0,0,0,3,1_2,1,0,0,1,Value -3,0,0,,,1,symmetric,0,0,0,,,3,,0
141210_1516,11,14,5,.69665098,.030334931,-3,1,-1,AGV,AGV,2,-1,0,0,-1,-1,-1,-1,-1,-1,-1,1,-1,-1,,0,29,38,,,0,1,-1,-1,0,0,,21,,2,2,2,10.322725,1,,1,-1,-3,-3,10,14,21,4,21,10,21,,,21,female,,3,Nichtwähler,,2,7,,,,,,,,,,,,,,,1,symmetric,9,21,RAND,AGV,114,-7,0,0,0,0,.5,0,AGV vs. RAND,negative,0,0,0,2,1_2,0,1,0,1,Value -3,1,1,,,0,symmetric,1,1,1,,,3,,1
141210_1516,3,14,5,.34080541,.77873665,3,1,3,AGV,RAND,2,-1,0,.125,-1,-1,1,-1,-1,-1,-1,-1,-1,-1,,1,24,24,,,0,1,3,-1,1,3.125,,14,,2,2,2,10.460314,2,,1,1,3,-3,12,14,15,4,15,12,15,,,21,female,,3,Nichtwähler,,2,7,,,,,,,,,,,,,,,1,symmetric,9,21,AGV,RAND,114,1,1,1,1,0,.5,.5,AGV vs. RAND,positive,0,1,0,1,1_2,0,1,1,0,Value 3,0,0,,,1,symmetric,0,0,1,,,3,,0
141210_1516,18,14,5,.15829766,.50880128,1,-10,-30,SM,SM,1,Yes,3,0,-2,-1,-1,-1,-1,-1,-1,-1,-1,-1,,1,36,,39,0,,0,-10,-10,1,1,9,25,,2,2,2,10.332914,2,,1,1,3,3,14,16,19,4,19,16,19,7,18,21,female,,3,Nichtwähler,,2,7,,,,,,,,,,,,,,,1,symmetric,9,21,SM,NSQ,114,7,1,1,1,0,.5,1,SM vs. NSQ,positive,,,0,3,1_2,1,0,1,0,Value 1,1,,1,0,,symmetric,1,1,0,,,1,,0
141210_1516,6,14,7,.24588303,.13027839,-3,-10,-30,SM,SM,1,Yes,3,0,-2,-1,-1,-1,-1,-1,-1,-1,-1,-1,,0,33,,34,,,1,-10,-10,1,-3,,12,,2,2,2,10.795697,3,,1,3,-3,3,10,14,20,4,20,10,20,,,21,female,,3,Nichtwähler,,2,7,,,,,,,,,,,,,,,1,symmetric,9,21,SM,NSQ,114,3,1,1,1,0,.5,1,SM vs. NSQ,negative,,,0,1,1_2,0,1,0,1,Value -3,1,,1,0,,symmetric,1,1,1,,,3,,0
141210_1516,12,14,6,.98123962,.61799216,1,-10,-30,SM,SM,2,Yes,2,0,-2,-1,-1,-1,-1,-1,-1,-1,-1,-1,,1,34,,36,,,1,-10,-10,1,1,,23,,2,2,2,10.352309,1,,1,-1,1,3,10,14,19,4,19,10,19,,,21,female,,3,Nichtwähler,,2,7,,,,,,,,,,,,,,,1,symmetric,9,21,NSQ,SM,114,3,1,1,1,0,.5,1,SM vs. NSQ,positive,,,0,2,1_2,0,1,1,0,Value 1,1,,1,0,,symmetric,1,1,1,,,1,,1
141210_1516,14,14,7,.20612331,.28292596,-1,-10,-30,SM,RAND,2,Yes,1,0,-2,-1,-1,-1,-1,-1,-1,-1,-1,-1,,0,30,,38,,0,1,-10,-10,0,0,,24,,2,2,2,10.736112,3,,1,-3,-1,-1,12,14,21,4,21,12,21,,,21,female,,3,Nichtwähler,,2,7,,,,,,,,,,,,,,,1,symmetric,9,21,SM,RAND,114,-5,0,0,0,0,.5,.5,SM vs. RAND,negative,,,0,3,1_2,1,0,0,1,Value -1,0,,0,,1,symmetric,0,0,0,,,1,,0
141210_1516,7,14,7,.64830577,.62394196,1,-10,-30,SM,RAND,1,Yes,1,0,-2,-1,-1,-1,-1,-1,-1,-1,-1,-1,,1,32,,32,,0,0,-10,-10,0,0,,21,,2,2,2,10.778622,2,,1,-3,1,-3,12,14,19,4,19,12,19,,,21,female,,3,Nichtwähler,,2,7,,,,,,,,,,,,,,,1,symmetric,9,21,RAND,SM,114,-5,0,0,0,0,.5,.5,SM vs. RAND,positive,,,0,2,1_2,0,1,1,0,Value 1,0,,0,,1,symmetric,0,0,0,,,1,,1
141210_1516,2,14,4,.6306302,.53458101,1,-10,-30,RAND,SM,1,-1,0,0,-2,-1,-1,-1,-1,-1,-1,-1,-1,-1,,1,27,,0,,28,0,-10,-10,0,0,,21,,2,2,2,10.433399,2,,1,-1,1,-3,10,14,16,4,16,10,16,,,21,female,,3,Nichtwähler,,2,7,,,,,,,,,,,,,,,1,symmetric,9,21,SM,RAND,114,-3,0,0,0,0,.5,0,SM vs. RAND,positive,,,0,1,1_2,0,1,1,0,Value 1,1,,1,,0,symmetric,1,1,0,,,1,,0
141210_1516,17,14,6,.42694557,.51549792,1,-10,-30,RAND,RAND,2,-1,0,0,-2,-1,-1,-1,-1,-1,-1,-1,-1,-1,,1,35,,,0,39,1,-10,-10,0,0,,24,,2,2,2,10.797997,2,,1,1,-3,3,14,15,20,4,20,15,20,,,21,female,,3,Nichtwähler,,2,7,,,,,,,,,,,,,,,1,symmetric,9,21,NSQ,RAND,114,1,1,1,1,0,.5,.5,NSQ vs. RAND,positive,,,0,3,1_2,1,0,1,0,Value 1,0,,,0,1,symmetric,1,,0,,,1,,0
141210_1516,10,14,5,.48247296,.57032496,1,-10,-30,NSQ,NSQ,2,-1,0,0,-2,-1,-1,-1,-1,-1,-1,-1,-1,-1,,1,31,,,37,0,1,-10,-10,0,0,,21,,2,2,2,10.409139,2,,1,1,3,-1,14,19,20,4,20,19,20,,,21,female,,3,Nichtwähler,,2,7,,,,,,,,,,,,,,,1,symmetric,9,21,RAND,NSQ,114,3,1,1,1,0,.5,0,NSQ vs. RAND,positive,,,0,2,1_2,0,1,1,0,Value 1,1,,,1,0,symmetric,1,,1,,,1,,1
141210_1516,5,14,6,.93941224,.59842527,1,-10,-30,RAND,RAND,2,-1,0,0,-2,-1,-1,-1,-1,-1,-1,-1,-1,-1,,1,35,,,0,37,0,-10,-10,0,0,,24,,2,2,2,10.474792,1,,1,-3,1,-3,10,14,21,4,21,10,21,,,21,female,,3,Nichtwähler,,2,7,,,,,,,,,,,,,,,1,symmetric,9,21,NSQ,RAND,114,-5,0,0,0,0,.5,.5,NSQ vs. RAND,positive,,,0,1,1_2,0,1,1,0,Value 1,0,,,0,1,symmetric,1,,1,,,1,,0
141210_1516,13,15,4,.62106943,.42237452,-1,-10,-30,SM,SM,1,No,1,0,-2,-1,-1,-1,-1,-1,-1,-1,-1,-1,,0,32,0,35,,,0,-10,-10,0,0,,22,,2,2,2,10.107642,1,106,1,-1,1,-3,15,16,18,4,18,16,18,,,19,male,,5,AfD,,6,6,,,,,,,,,,,,,,,1,symmetric,9,21,SM,AGV,115,-3,0,0,0,0,.5,0,AGV vs. SM,negative,,,1,3,1_2,1,0,0,1,Value -1,0,0,1,,,symmetric,0,0,0,0,,1,,1
141210_1516,1,15,5,.69140232,.047797449,-3,-10,-30,SM,SM,1,No,1,0,-2,-1,-1,-1,-1,-1,-1,-1,-1,-1,,0,30,0,28,,,1,-10,-10,0,0,,18,,2,2,2,10.330849,2,,1,-3,-3,1,11,15,18,4,18,11,18,,,19,male,,5,AfD,,6,6,,,,,,,,,,,,,,,1,symmetric,9,21,SM,AGV,115,-5,0,0,0,0,.5,0,AGV vs. SM,negative,,,1,1,1_2,0,1,0,1,Value -3,0,0,1,,,symmetric,0,0,0,,,3,,1
141210_1516,9,15,4,.22739092,.23637237,-3,-10,-30,SM,SM,2,No,1,0,-2,-1,-1,-1,-1,-1,-1,-1,-1,-1,,0,35,0,38,,,1,-10,-10,0,0,,21,,2,2,2,10.277143,2,,1,-1,-3,1,12,15,18,4,18,12,18,,,19,male,,5,AfD,,6,6,,,,,,,,,,,,,,,1,symmetric,9,21,AGV,SM,115,-3,0,0,0,0,.5,0,AGV vs. SM,negative,,,1,2,1_2,0,1,0,1,Value -3,0,0,1,,,symmetric,0,0,0,,,3,,0
141210_1516,16,15,5,.029258352,.19378866,-3,-1,1,AGV,NSQ,1,-1,0,.125,-1,-1,1,-1,-1,-1,-1,-1,-1,-1,,0,34,35,,0,,1,-1,3,1,-2.875,,20,,2,2,2,10.359652,3,,1,-3,1,-3,10,13,15,4,13,10,13,,,19,male,,5,AfD,,6,6,,,,,,,,,,,,,,,1,symmetric,9,21,NSQ,AGV,115,-5,0,0,0,0,.5,0,AGV vs. NSQ,negative,0,1,1,3,1_2,1,0,0,1,Value -3,0,0,,1,,symmetric,0,0,0,,,3,,1
141210_1516,4,15,5,.72478986,.9642368,3,1,-3,AGV,AGV,2,-1,0,.125,-1,-1,-1,-1,-1,-1,-1,-1,1,-1,,1,32,34,,0,,0,-1,-3,0,.125,,15,,2,2,2,10.418059,1,,1,-3,3,-3,10,15,17,4,17,10,17,,,19,male,,5,AfD,,6,6,,,,,,,,,,,,,,,1,symmetric,9,21,NSQ,AGV,115,-3,0,0,0,0,.5,0,AGV vs. NSQ,positive,0,1,1,1,1_2,0,1,1,0,Value 3,1,1,,0,,symmetric,1,1,1,,,3,,1
141210_1516,8,15,6,.69919491,.88976157,3,1,3,AGV,AGV,1,-1,0,0,-1,-1,-1,-1,1,-1,-1,-1,-1,-1,,1,36,35,,0,,1,1,1,1,3,,19,,2,2,2,10.684157,2,,1,3,1,1,15,18,20,4,20,18,20,,,19,male,,5,AfD,,6,6,,,,,,,,,,,,,,,1,symmetric,9,21,AGV,NSQ,115,5,1,1,1,0,.5,1,AGV vs. NSQ,positive,0,1,1,2,1_2,0,1,1,0,Value 3,1,1,,0,,symmetric,1,1,1,,,3,,0
141210_1516,15,15,5,.88523328,.69307846,1,1,1,AGV,AGV,1,-1,0,0,-1,-1,-1,-1,-1,1,-1,-1,-1,-1,,1,35,39,,,0,1,1,-1,1,1,,19,,2,2,2,10.446904,1,,1,-3,1,-1,14,15,20,4,20,14,20,,,19,male,,5,AfD,,6,6,,,,,,,,,,,,,,,1,symmetric,9,21,AGV,RAND,115,-3,0,0,0,0,.5,0,AGV vs. RAND,positive,1,1,1,3,1_2,1,0,1,0,Value 1,1,1,,,0,symmetric,1,1,0,,,1,,0
141210_1516,3,15,5,.704436,.21550189,-3,-1,3,AGV,AGV,1,-1,0,.125,-1,1,-1,-1,-1,-1,-1,-1,-1,-1,,0,29,33,,,0,1,3,1,1,-2.875,,17,,2,2,2,10.357369,1,,1,1,3,-3,12,14,15,4,14,12,14,,,19,male,,5,AfD,,6,6,,,,,,,,,,,,,,,1,symmetric,9,21,AGV,RAND,115,1,1,1,1,0,.5,1,AGV vs. RAND,negative,0,1,1,1,1_2,0,1,0,1,Value -3,1,1,,,0,symmetric,1,1,1,,,3,,0
141210_1516,11,15,6,.75136936,.41280368,-1,-1,-1,AGV,AGV,2,-1,0,.25,-1,-1,-1,1,-1,-1,-1,-1,-1,-1,,0,36,35,,,0,0,3,-3,0,.25,,18,,2,2,2,10.328221,2,,1,3,-1,-1,13,15,16,4,16,13,16,,,19,male,,5,AfD,,6,6,,,,,,,,,,,,,,,1,symmetric,9,21,RAND,AGV,115,1,1,1,0,0,.5,1,AGV vs. RAND,negative,1,1,1,2,1_2,0,1,0,1,Value -1,1,1,,,0,symmetric,1,1,1,,,1,,1
141210_1516,18,15,4,.21007265,.82185066,3,-10,-30,SM,SM,1,Yes,3,0,-2,-1,-1,-1,-1,-1,-1,-1,-1,-1,,1,36,,38,0,,1,-10,-10,1,3,9,25,,2,2,2,10.259835,3,,1,1,3,1,11,15,18,4,18,11,18,7,22,19,male,,5,AfD,,6,6,,,,,,,,,,,,,,,1,symmetric,9,21,SM,NSQ,115,5,1,1,1,0,.5,1,SM vs. NSQ,positive,,,1,3,1_2,1,0,1,0,Value 3,1,,1,0,,symmetric,1,1,0,,,3,,0
141210_1516,6,15,6,.011444014,.55361867,1,-10,-30,SM,SM,1,Yes,2,0,-2,-1,-1,-1,-1,-1,-1,-1,-1,-1,,1,35,,35,,,1,-10,-10,1,1,,22,,2,2,2,10.373107,3,,1,1,1,-3,12,15,17,4,17,12,17,,,19,male,,5,AfD,,6,6,,,,,,,,,,,,,,,1,symmetric,9,21,SM,NSQ,115,-1,0,0,1,0,.5,1,SM vs. NSQ,positive,,,1,1,1_2,0,1,1,0,Value 1,1,,1,0,,symmetric,1,1,1,,,1,,0
141210_1516,12,15,5,.93185019,.7805168,3,-10,-30,SM,SM,2,Yes,2,0,-2,-1,-1,-1,-1,-1,-1,-1,-1,-1,,1,36,,32,,,1,-10,-10,1,3,,24,,2,2,2,10.303183,1,,1,3,-1,1,15,18,21,4,21,18,21,,,19,male,,5,AfD,,6,6,,,,,,,,,,,,,,,1,symmetric,9,21,NSQ,SM,115,3,1,1,1,0,.5,1,SM vs. NSQ,positive,,,1,2,1_2,0,1,1,0,Value 3,1,,1,0,,symmetric,1,1,1,,,3,,1
141210_1516,14,15,4,.17865109,.11755663,-3,-10,-30,SM,SM,1,No,0,0,-2,-1,-1,-1,-1,-1,-1,-1,-1,-1,,0,31,,36,,0,1,-10,-10,0,0,,24,,2,2,2,10.037856,3,,1,-3,-3,-1,15,16,19,4,19,16,19,,,19,male,,5,AfD,,6,6,,,,,,,,,,,,,,,1,symmetric,9,21,SM,RAND,115,-7,0,0,0,0,.5,0,SM vs. RAND,negative,,,1,3,1_2,1,0,0,1,Value -3,1,,1,,0,symmetric,1,1,0,,,3,,0
141210_1516,7,15,4,.15454866,.21073312,-3,-10,-30,SM,SM,2,No,0,0,-2,-1,-1,-1,-1,-1,-1,-1,-1,-1,,0,33,,37,,0,1,-10,-10,0,0,,23,,2,2,2,10.038861,3,,1,-3,-3,-3,13,15,20,4,20,13,20,,,19,male,,5,AfD,,6,6,,,,,,,,,,,,,,,1,symmetric,9,21,RAND,SM,115,-9,0,0,0,0,.5,0,SM vs. RAND,negative,,,1,2,1_2,0,1,0,1,Value -3,1,,1,,0,symmetric,1,1,1,,,3,,1
141210_1516,2,15,5,.63013697,.10853771,-3,-10,-30,SM,SM,1,No,0,0,-2,-1,-1,-1,-1,-1,-1,-1,-1,-1,,0,33,,36,,0,1,-10,-10,0,0,,21,,2,2,2,10.446935,1,,1,-3,-3,-3,11,15,17,4,17,11,17,,,19,male,,5,AfD,,6,6,,,,,,,,,,,,,,,1,symmetric,9,21,SM,RAND,115,-9,0,0,0,0,.5,0,SM vs. RAND,negative,,,1,1,1_2,0,1,0,1,Value -3,1,,1,,0,symmetric,1,1,1,,,3,,0
141210_1516,17,15,6,.25155258,.19721605,-3,-10,-30,RAND,NSQ,1,-1,0,0,-2,-1,-1,-1,-1,-1,-1,-1,-1,-1,,0,35,,,0,38,0,-10,-10,0,0,,23,,2,2,2,10.5126,3,,1,1,-3,3,14,15,20,4,20,14,20,,,19,male,,5,AfD,,6,6,,,,,,,,,,,,,,,1,symmetric,9,21,NSQ,RAND,115,1,1,1,1,0,.5,0,NSQ vs. RAND,negative,,,1,3,1_2,1,0,0,1,Value -3,1,,,1,0,symmetric,1,,0,,,3,,0
141210_1516,10,15,6,.6953699,.18124378,-3,-10,-30,RAND,RAND,1,-1,0,0,-2,-1,-1,-1,-1,-1,-1,-1,-1,-1,,0,34,,,0,38,0,-10,-10,1,-3,,18,,2,2,2,10.555789,2,,1,-1,-1,-3,10,13,15,4,13,10,13,,,19,male,,5,AfD,,6,6,,,,,,,,,,,,,,,1,symmetric,9,21,RAND,NSQ,115,-5,0,0,0,0,.5,.5,NSQ vs. RAND,negative,,,1,2,1_2,0,1,0,1,Value -3,0,,,0,1,symmetric,1,,1,,,3,,1
141210_1516,5,15,7,.97197109,.70884645,1,-10,-30,RAND,RAND,2,-1,0,0,-2,-1,-1,-1,-1,-1,-1,-1,-1,-1,,1,34,,,0,37,1,-10,-10,1,1,,18,,2,2,2,10.892138,1,,1,1,1,1,13,15,20,4,20,13,20,,,19,male,,5,AfD,,6,6,,,,,,,,,,,,,,,1,symmetric,9,21,NSQ,RAND,115,3,1,1,1,0,.5,.5,NSQ vs. RAND,positive,,,1,1,1_2,0,1,1,0,Value 1,0,,,0,1,symmetric,1,,1,,,1,,0
141210_1516,13,16,4,.34456533,.53687233,1,-10,-30,SM,SM,1,Yes,1,0,-2,-1,-1,-1,-1,-1,-1,-1,-1,-1,,1,7,0,38,,,0,-10,-10,0,0,,22,,2,2,2,10.214255,3,105,1,-1,1,-3,15,16,18,4,18,15,18,,,23,male,,6,FDP,,7,6,,,,,,,,,,,,,,,1,symmetric,9,21,SM,AGV,116,-3,0,0,0,0,.5,0,AGV vs. SM,positive,,,1,3,1_2,1,0,1,0,Value 1,0,0,1,,,symmetric,0,0,0,0,,1,,1
141210_1516,1,16,7,.63086545,.43475172,-1,-10,-30,SM,AGV,2,No,1,0,-2,-1,-1,-1,-1,-1,-1,-1,-1,-1,,0,33,0,32,,,1,-10,-10,0,0,,19,,2,2,2,10.614146,3,,1,3,-1,-3,14,16,17,4,17,14,17,,,23,male,,6,FDP,,7,6,,,,,,,,,,,,,,,1,symmetric,9,21,SM,AGV,116,-1,0,0,0,0,.5,0,AGV vs. SM,negative,,,1,1,1_2,0,1,0,1,Value -1,1,1,0,,,symmetric,1,1,1,,,1,,1
141210_1516,9,16,6,.12834011,.87415248,3,-10,-30,SM,AGV,1,Yes,3,0,-2,-1,-1,-1,-1,-1,-1,-1,-1,-1,,1,30,0,30,,,1,-10,-10,1,3,,24,,2,2,2,10.599288,3,,1,-1,3,3,14,16,21,4,21,14,21,,,23,male,,6,FDP,,7,6,,,,,,,,,,,,,,,1,symmetric,9,21,AGV,SM,116,5,1,1,1,0,.5,1,AGV vs. SM,positive,,,1,2,1_2,0,1,1,0,Value 3,1,1,0,,,symmetric,1,1,1,,,3,,0
141210_1516,16,16,7,.74511063,.72099173,1,-10,-30,NSQ,AGV,2,-1,0,0,-2,-1,-1,-1,-1,-1,-1,-1,-1,-1,,1,34,0,,36,,1,-10,-10,0,0,,21,,2,2,2,10.894187,2,,1,1,-1,-1,16,20,21,4,21,20,21,,,23,male,,6,FDP,,7,6,,,,,,,,,,,,,,,1,symmetric,9,21,NSQ,AGV,116,-1,0,0,0,0,.5,0,AGV vs. NSQ,positive,,,1,3,1_2,1,0,1,0,Value 1,1,1,,0,,symmetric,1,1,0,,,1,,1
141210_1516,4,16,6,.92814147,.55316973,1,3,3,AGV,AGV,2,-1,0,-.25,-1,-1,-1,-1,-1,1,-1,-1,-1,-1,,1,35,35,,0,,1,-1,1,1,.75,,21,,2,2,2,10.815884,1,,1,-1,1,1,12,16,18,4,18,12,18,,,23,male,,6,FDP,,7,6,,,,,,,,,,,,,,,1,symmetric,9,21,NSQ,AGV,116,1,1,1,1,0,.5,1,AGV vs. NSQ,positive,0,1,1,1,1_2,0,1,1,0,Value 1,1,1,,0,,symmetric,1,1,1,,,1,,1
141210_1516,8,16,4,.18405464,.30084866,-1,-10,-30,NSQ,AGV,1,-1,0,0,-2,-1,-1,-1,-1,-1,-1,-1,-1,-1,,0,34,0,,37,,0,-10,-10,0,0,,16,,2,2,2,10.105206,2,,1,1,3,-1,10,13,16,4,13,10,13,,,23,male,,6,FDP,,7,6,,,,,,,,,,,,,,,1,symmetric,9,21,AGV,NSQ,116,3,1,1,1,0,.5,1,AGV vs. NSQ,negative,,,1,2,1_2,0,1,0,1,Value -1,1,1,,0,,symmetric,1,1,1,,,1,,0
141210_1516,15,16,7,.66561621,.30019063,-1,-3,-1,AGV,AGV,1,-1,0,-.25,-1,-1,-1,-1,1,-1,-1,-1,-1,-1,,0,31,34,,,0,0,1,1,0,-.25,,19,,2,2,2,10.561034,2,,1,3,-1,1,10,16,17,4,17,10,17,,,23,male,,6,FDP,,7,6,,,,,,,,,,,,,,,1,symmetric,9,21,AGV,RAND,116,3,1,1,1,0,.5,1,AGV vs. RAND,negative,0,1,1,3,1_2,1,0,0,1,Value -1,1,1,,,0,symmetric,1,1,0,,,1,,0
141210_1516,3,16,6,.018172985,.56024575,1,3,5,AGV,AGV,1,-1,0,-.125,-1,-1,1,-1,-1,-1,-1,-1,-1,-1,,1,35,34,,,0,1,-1,3,1,.875,,22,,2,2,2,10.671484,3,,1,-1,1,3,11,16,17,4,17,11,17,,,23,male,,6,FDP,,7,6,,,,,,,,,,,,,,,1,symmetric,9,21,AGV,RAND,116,3,1,1,1,0,.5,1,AGV vs. RAND,positive,0,1,1,1,1_2,0,1,1,0,Value 1,1,1,,,0,symmetric,1,1,1,,,1,,0
141210_1516,11,16,6,.59705091,.38930094,-1,-3,-1,AGV,AGV,2,-1,0,-.125,-1,-1,1,-1,-1,-1,-1,-1,-1,-1,,0,11,13,,,0,1,3,-1,0,-.125,,22,,2,2,2,10.602089,3,,1,3,-1,-1,13,15,16,4,15,13,15,,,23,male,,6,FDP,,7,6,,,,,,,,,,,,,,,1,symmetric,9,21,RAND,AGV,116,1,1,1,0,0,.5,1,AGV vs. RAND,negative,0,1,1,2,1_2,0,1,0,1,Value -1,1,1,,,0,symmetric,1,1,1,,,1,,1
141210_1516,18,16,5,.032273706,.98912299,3,-10,-30,SM,SM,1,Yes,3,0,-2,-1,-1,-1,-1,-1,-1,-1,-1,-1,,1,30,,32,0,,0,-10,-10,1,3,9,25,,2,2,2,10.458083,3,,1,1,3,3,14,16,19,4,19,14,19,7,5,23,male,,6,FDP,,7,6,,,,,,,,,,,,,,,1,symmetric,9,21,SM,NSQ,116,7,1,1,1,0,.5,1,SM vs. NSQ,positive,,,1,3,1_2,1,0,1,0,Value 3,1,,1,0,,symmetric,1,1,0,,,3,,0
141210_1516,12,16,4,.51376557,.16984686,-3,-10,-30,SM,SM,2,No,1,0,-2,-1,-1,-1,-1,-1,-1,-1,-1,-1,,0,30,,35,,,0,-10,-10,0,0,,21,,2,2,2,10.085288,3,,1,1,-3,-3,11,12,16,4,12,11,12,,,23,male,,6,FDP,,7,6,,,,,,,,,,,,,,,1,symmetric,9,21,NSQ,SM,116,-5,0,0,0,0,.5,0,SM vs. NSQ,negative,,,1,2,1_2,0,1,0,1,Value -3,1,,1,0,,symmetric,1,1,1,,,3,,1
141210_1516,6,16,4,.86732918,.64754236,1,-10,-30,SM,SM,1,Yes,3,0,-2,-1,-1,-1,-1,-1,-1,-1,-1,-1,,1,30,,11,,,0,-10,-10,1,1,,-5,,2,2,2,10.154683,1,,1,1,1,3,16,19,21,4,21,19,21,,,23,male,,6,FDP,,7,6,,,,,,,,,,,,,,,1,symmetric,9,21,SM,NSQ,116,5,1,1,1,0,.5,1,SM vs. NSQ,positive,,,1,1,1_2,0,1,1,0,Value 1,1,,1,0,,symmetric,1,1,1,,,1,,0
141210_1516,14,16,4,.88193715,.10049458,-3,-10,-30,SM,SM,1,No,0,0,-2,-1,-1,-1,-1,-1,-1,-1,-1,-1,,0,30,,37,,0,1,-10,-10,0,0,,22,,2,2,2,10.04302,1,,1,-3,-3,-1,15,16,19,4,19,15,19,,,23,male,,6,FDP,,7,6,,,,,,,,,,,,,,,1,symmetric,9,21,SM,RAND,116,-7,0,0,0,0,.5,0,SM vs. RAND,negative,,,1,3,1_2,1,0,0,1,Value -3,1,,1,,0,symmetric,1,1,0,,,3,,0
141210_1516,7,16,6,.59275824,.072568156,-3,-10,-30,SM,SM,2,No,0,0,-2,-1,-1,-1,-1,-1,-1,-1,-1,-1,,0,36,,34,,0,1,-10,-10,0,0,,23,,2,2,2,10.736814,1,,1,-3,-3,-3,11,16,17,4,17,11,17,,,23,male,,6,FDP,,7,6,,,,,,,,,,,,,,,1,symmetric,9,21,RAND,SM,116,-9,0,0,0,0,.5,0,SM vs. RAND,negative,,,1,2,1_2,0,1,0,1,Value -3,1,,1,,0,symmetric,1,1,1,,,3,,1
141210_1516,2,16,4,.41468281,.17159462,-3,-10,-30,RAND,SM,1,-1,0,0,-2,-1,-1,-1,-1,-1,-1,-1,-1,-1,,0,33,,0,,34,1,-10,-10,0,0,,21,,2,2,2,10.153739,3,,1,-1,1,-3,10,14,16,4,14,10,14,,,23,male,,6,FDP,,7,6,,,,,,,,,,,,,,,1,symmetric,9,21,SM,RAND,116,-3,0,0,0,0,.5,0,SM vs. RAND,negative,,,1,1,1_2,0,1,0,1,Value -3,1,,1,,0,symmetric,1,1,1,,,3,,0
141210_1516,17,16,4,.81854129,.49324921,-1,-10,-30,NSQ,NSQ,1,-1,0,0,-2,-1,-1,-1,-1,-1,-1,-1,-1,-1,,0,35,,,35,0,1,-10,-10,0,0,,25,,2,2,2,10.10634,1,,1,3,-1,-3,11,16,21,4,21,11,21,,,23,male,,6,FDP,,7,6,,,,,,,,,,,,,,,1,symmetric,9,21,NSQ,RAND,116,-1,0,0,0,0,.5,0,NSQ vs. RAND,negative,,,1,3,1_2,1,0,0,1,Value -1,1,,,1,0,symmetric,1,,0,,,1,,0
141210_1516,5,16,4,.23262896,.85706848,3,-10,-30,RAND,NSQ,1,-1,0,0,-2,-1,-1,-1,-1,-1,-1,-1,-1,-1,,1,30,,,0,34,0,-10,-10,0,0,,15,,2,2,2,10.045585,3,,1,-1,3,-3,12,16,17,4,17,12,17,,,23,male,,6,FDP,,7,6,,,,,,,,,,,,,,,1,symmetric,9,21,NSQ,RAND,116,-1,0,0,0,0,.5,0,NSQ vs. RAND,positive,,,1,1,1_2,0,1,1,0,Value 3,1,,,1,0,symmetric,1,,1,,,3,,0
141210_1516,10,16,4,.0065208864,.21061851,-3,-10,-30,RAND,NSQ,2,-1,0,0,-2,-1,-1,-1,-1,-1,-1,-1,-1,-1,,0,28,,,0,38,1,-10,-10,0,0,,24,,2,2,2,10.245445,3,,1,-1,-3,1,11,16,17,4,17,11,17,,,23,male,,6,FDP,,7,6,,,,,,,,,,,,,,,1,symmetric,9,21,RAND,NSQ,116,-3,0,0,0,0,.5,0,NSQ vs. RAND,negative,,,1,2,1_2,0,1,0,1,Value -3,1,,,1,0,symmetric,1,,1,,,3,,1
141210_1516,13,17,5,.8988682,.48076937,-1,-1,-3,AGV,AGV,2,-1,0,.125,-1,-1,-1,-1,-1,-1,1,-1,-1,-1,,0,32,27,0,,,0,1,-3,0,.125,,21,,2,2,2,10.334041,1,103,1,1,-1,-3,14,17,19,4,19,14,19,,,18,male,,8,CDU/CSU,,3,3,,,,,,,,,,,,,,,1,symmetric,9,21,SM,AGV,117,-3,0,0,0,0,.5,0,AGV vs. SM,negative,1,1,1,3,1_2,1,0,0,1,Value -1,1,1,0,,,symmetric,1,1,0,0,,1,,1
141210_1516,9,17,7,.021656426,.21006554,-3,-10,-30,SM,AGV,1,No,1,0,-2,-1,-1,-1,-1,-1,-1,-1,-1,-1,,0,35,0,34,,,1,-10,-10,0,0,,24,,2,2,2,10.994072,3,,1,-1,-3,1,10,17,19,4,19,10,19,,,18,male,,8,CDU/CSU,,3,3,,,,,,,,,,,,,,,1,symmetric,9,21,AGV,SM,117,-3,0,0,0,0,.5,0,AGV vs. SM,negative,,,1,2,1_2,0,1,0,1,Value -3,1,1,0,,,symmetric,1,1,1,,,3,,0
