session,Period,Subject,matching_group,rand,r,Valuation,reported_valuation,sum_reported_valuations,GroupDecisionRule,GroupDecisionVote,GroupDecisionVote_XY,vote,VotesInFavour,transfer,reports_others_3_3,reports_others_3_1,reports_others_3_minus_1,reports_others_3_minus_3,reports_others_1_1,reports_others_1_minus_1,reports_others_1_minus_3,reports_others_minus_1_minus_1,reports_others_minus_1_minus_3,reports_others_minus_3_minus_3,TimeOKTestQuestionsOK,positive,TimeOKStageONEOK,TimeWertschaetbenStageTWOAGVOK,TimeStimmeAbgebenStageTWOK2OK,TimeWEITERStageTWOStatusQuoOK,TimeZumMuenzwuImplementationOK,Draw_random_provision,ReportsVector1,ReportsVector2,provision,payoff,earnings,TimeOKOUTPUTRESULTSOK,TimeOKEndOfTrialRoundsOK,independent_groups,group_formation,i,random_number,rank,TimeWEITERWAITNGAFTERROUND12OK,NumberRank,ValuationVector1,ValuationVector2,ValuationVector3,snr1,snr2,snr3,x,y,srnr1,srnr2,SelectedPeriod,TimeOKProfitInfoOK,Age,Gender,TimeOKQuestionaire1OK,Orientation,Party,TimeOKQuestionaire2OK,risk_self,risk_others,TimeOKQuestionaire3OK,reports_others_7_7,reports_others_7_1,reports_others_7_minus_1,reports_others_7_minus_3,reports_others_3_minus_7,reports_others_1_minus_7,reports_others_minus_1_minus_7,reports_others_minus_7_minus_7,reports_others_7_minus_2,reports_others_minus_1_minus_2,reports_others_minus_2_minus_2,reports_others_minus_2_minus_3,Study_Subject,Session_number,treatment_distribution,maxsession,maxsubject,Rule_1,Rule_2,identifier,SurplusGroup,EfficientChoice,HypotheticalResultAGV,HypotheticalResultSM,HypotheticalResultSQ,HypotheticalResultRAND,ChoiceResultSubject,BinaryChoice,dummy_valuation_negative,truth_telling,truth_telling_sign,never_misreports_sign,block,session_match,ad_interim_round,ex_ante_round,valuation_positive,valuation_negative,Value_factor,Rule_Vote,chose_AGV,chose_SM,chose_NSQ,chose_RAND,treatment_number,efficient,efficient_mech_choice,ex_ante_efficient,GK_prefAGV,TaxTheWinner,absVal,Veto,comparison_order_inverted,Rational
141210_1516,1,1,1,0.81072801,0.053471379,-3,3,9,AGV,AGV,2,-1,0,0.0,1.0,-1.0,-1.0,-1.0,-1.0,-1.0,-1.0,-1,-1.0,-1.0,,0,25,30.0,0.0,0.0,0.0,1,3,3,1,-3.0,9.0,19,,2,1,2,0.10578297,1,0.0,1,-3,1,3,1,3,4,4,4,3,4,0.0,0.0,64,male,,3,Die Linke,,5,5,,,,,,,,,,,,,,,1,symmetric,9,21,SM,AGV,101,1,1,1,1,0,0.5,1.0,AGV vs. SM,negative,0.0,0.0,0,1,1_1,0,1,0,1,Value -3,1,1.0,0.0,,,symmetric,1.0,1.0,1.0,,,3,,1,1
141210_1516,1,3,1,0.25368947,0.69347477,1,3,9,AGV,SM,1,-1,0,0.0,1.0,-1.0,-1.0,-1.0,-1.0,-1.0,-1.0,-1,-1.0,-1.0,,1,5,18.0,0.0,,,0,3,3,1,1.0,,2,,2,1,2,0.17466381,2,,1,-3,1,3,1,3,4,4,4,1,4,,,19,male,,6,FDP,,3,4,,,,,,,,,,,,,,,1,symmetric,9,21,SM,AGV,103,1,1,1,1,0,0.5,1.0,AGV vs. SM,positive,0.0,1.0,1,1,1_1,0,1,1,0,Value 1,0,0.0,1.0,,,symmetric,0.0,0.0,0.0,,,1,,1,1
141210_1516,1,4,1,0.089805126,0.79003048,3,3,9,AGV,AGV,2,-1,0,0.0,1.0,-1.0,-1.0,-1.0,-1.0,-1.0,-1.0,-1,-1.0,-1.0,,1,28,33.0,0.0,,,1,3,3,1,3.0,,12,,2,1,2,0.10601617,3,,1,-3,1,3,1,3,4,4,3,1,3,,,25,female,,8,Nichtwähler,,3,8,,,,,,,,,,,,,,,1,symmetric,9,21,SM,AGV,104,1,1,1,1,0,0.5,1.0,AGV vs. SM,positive,1.0,1.0,1,1,1_1,0,1,1,0,Value 3,1,1.0,0.0,,,symmetric,1.0,1.0,1.0,,,3,,1,1
141210_1516,1,2,2,0.80467045,0.43985426,-1,-1,-5,AGV,SM,1,-1,0,0.125,-1.0,-1.0,-1.0,-1.0,-1.0,-1.0,-1.0,-1,1.0,-1.0,,0,25,10.0,0.0,,,1,-1,-3,0,0.125,,19,,2,1,2,0.29153389,2,,1,-1,-1,-1,2,5,7,4,7,5,7,,,26,male,,4,Die Linke,,2,6,,,,,,,,,,,,,,,1,symmetric,9,21,SM,AGV,102,-3,0,0,0,0,0.5,0.0,AGV vs. SM,negative,1.0,1.0,1,1,1_1,0,1,0,1,Value -1,0,0.0,1.0,,,symmetric,0.0,0.0,0.0,,,1,,1,1
141210_1516,1,5,2,0.95589727,0.4033722,-1,-1,-5,AGV,AGV,2,-1,0,0.125,-1.0,-1.0,-1.0,-1.0,-1.0,-1.0,-1.0,-1,1.0,-1.0,,0,20,22.0,0.0,,,1,-1,-3,0,0.125,,16,,2,1,2,0.35741907,1,,1,-1,-1,-1,2,5,7,4,7,2,7,,,26,male,,2,Sonstige,,5,8,,,,,,,,,,,,,,,1,symmetric,9,21,SM,AGV,105,-3,0,0,0,0,0.5,0.0,AGV vs. SM,negative,1.0,1.0,1,1,1_1,0,1,0,1,Value -1,1,1.0,0.0,,,symmetric,1.0,1.0,1.0,,,1,,1,1
141210_1516,1,7,2,0.32338229,0.4767442,-1,-3,-5,AGV,SM,1,-1,0,-0.25,-1.0,-1.0,-1.0,-1.0,-1.0,-1.0,-1.0,1,-1.0,-1.0,,0,23,13.0,0.0,,,0,-1,-1,0,-0.25,,0,,2,1,2,0.37817925,3,,1,-1,-1,-1,2,5,7,4,5,2,5,,,23,female,,4,SPD,,8,7,,,,,,,,,,,,,,,1,symmetric,9,21,SM,AGV,107,-3,0,0,0,0,0.5,0.0,AGV vs. SM,negative,0.0,1.0,1,1,1_1,0,1,0,1,Value -1,0,0.0,1.0,,,symmetric,0.0,0.0,0.0,,,1,,1,1
141210_1516,1,6,3,0.6816389,0.97905171,3,3,7,AGV,SM,1,-1,0,-0.125,-1.0,1.0,-1.0,-1.0,-1.0,-1.0,-1.0,-1,-1.0,-1.0,,1,30,32.0,0.0,,,1,3,1,1,2.875,,14,,2,1,2,0.92243594,2,,1,3,3,-1,6,8,9,4,9,8,9,,,21,male,,2,Die Linke,,3,6,,,,,,,,,,,,,,,1,symmetric,9,21,SM,AGV,106,5,1,1,1,0,0.5,1.0,AGV vs. SM,positive,1.0,1.0,1,1,1_1,0,1,1,0,Value 3,0,0.0,1.0,,,symmetric,0.0,0.0,0.0,,,3,,1,0
141210_1516,1,8,3,0.15244272,0.75863868,3,3,7,AGV,SM,1,-1,0,-0.125,-1.0,1.0,-1.0,-1.0,-1.0,-1.0,-1.0,-1,-1.0,-1.0,,1,23,26.0,0.0,,,0,3,1,1,2.875,,4,,2,1,2,0.63522494,3,,1,3,3,-1,6,8,9,4,9,6,9,,,23,female,,4,CDU/CSU,,8,4,,,,,,,,,,,,,,,1,symmetric,9,21,SM,AGV,108,5,1,1,1,0,0.5,1.0,AGV vs. SM,positive,1.0,1.0,0,1,1_1,0,1,1,0,Value 3,0,0.0,1.0,,,symmetric,0.0,0.0,0.0,,,3,,1,0
141210_1516,1,9,3,0.87198424,0.42897767,-1,1,7,AGV,AGV,2,-1,0,0.25,1.0,-1.0,-1.0,-1.0,-1.0,-1.0,-1.0,-1,-1.0,-1.0,,0,15,19.0,0.0,,,1,3,3,1,-0.75,,-6,,2,1,2,0.75115645,1,,1,3,3,-1,6,8,9,4,8,6,8,,,26,male,,10,AfD,,8,8,,,,,,,,,,,,,,,1,symmetric,9,21,SM,AGV,109,5,1,1,1,0,0.5,1.0,AGV vs. SM,negative,0.0,0.0,0,1,1_1,0,1,0,1,Value -1,1,1.0,0.0,,,symmetric,1.0,1.0,1.0,,,1,,1,1
141210_1516,1,10,4,0.35469764,0.22970735,-3,-10,-30,SM,SM,1,No,0,0.0,-2.0,-1.0,-1.0,-1.0,-1.0,-1.0,-1.0,-1,-1.0,-1.0,,0,20,0.0,23.0,,,1,-10,-10,0,-3.0,,16,,2,2,2,10.225819,1,,1,-3,1,3,10,19,21,4,21,19,21,,,19,female,,6,CDU/CSU,,6,4,,,,,,,,,,,,,,,1,symmetric,9,21,SM,AGV,110,1,1,1,1,0,0.5,1.0,AGV vs. SM,negative,,,1,1,1_2,0,1,0,1,Value -3,0,0.0,1.0,,,symmetric,0.0,0.0,0.0,,,3,,1,0
141210_1516,1,19,4,0.0025524404,0.59253824,1,-10,-30,SM,AGV,2,Yes,2,0.0,-2.0,-1.0,-1.0,-1.0,-1.0,-1.0,-1.0,-1,-1.0,-1.0,,1,29,0.0,30.0,,,1,-10,-10,1,1.0,,19,,2,2,2,10.234209,3,,1,-3,1,3,10,19,21,4,21,10,21,,,22,male,,9,CDU/CSU,,3,1,,,,,,,,,,,,,,,1,symmetric,9,21,SM,AGV,119,1,1,1,1,0,0.5,1.0,AGV vs. SM,positive,,,1,1,1_2,0,1,1,0,Value 1,1,1.0,0.0,,,symmetric,1.0,1.0,1.0,,,1,,1,1
141210_1516,1,21,4,0.23090407,0.89886564,3,-10,-30,SM,SM,1,Yes,2,0.0,-2.0,-1.0,-1.0,-1.0,-1.0,-1.0,-1.0,-1,-1.0,-1.0,,1,20,0.0,28.0,,,0,-10,-10,1,3.0,,6,,2,2,2,10.155849,2,,1,-3,1,3,10,19,21,4,19,10,19,,,24,female,,6,Nichtwähler,,7,5,,,,,,,,,,,,,,,1,symmetric,9,21,SM,AGV,121,1,1,1,1,0,0.5,1.0,AGV vs. SM,positive,,,0,1,1_2,0,1,1,0,Value 3,0,0.0,1.0,,,symmetric,0.0,0.0,0.0,,,3,,1,0
141210_1516,1,11,5,0.30512607,0.14241162,-3,-10,-30,SM,SM,1,No,0,0.0,-2.0,-1.0,-1.0,-1.0,-1.0,-1.0,-1.0,-1,-1.0,-1.0,,0,27,0.0,30.0,,,1,-10,-10,0,0.0,,23,,2,2,2,10.390746,3,,1,-3,-3,1,11,15,18,4,18,15,18,,,19,female,,5,Bündnis 90 / Die Grünen,,4,4,,,,,,,,,,,,,,,1,symmetric,9,21,SM,AGV,111,-5,0,0,0,0,0.5,0.0,AGV vs. SM,negative,,,1,1,1_2,0,1,0,1,Value -3,0,0.0,1.0,,,symmetric,0.0,0.0,0.0,,,3,,1,0
141210_1516,1,15,5,0.69140232,0.047797449,-3,-10,-30,SM,SM,1,No,0,0.0,-2.0,-1.0,-1.0,-1.0,-1.0,-1.0,-1.0,-1,-1.0,-1.0,,0,30,0.0,28.0,,,1,-10,-10,0,0.0,,18,,2,2,2,10.330849,2,,1,-3,-3,1,11,15,18,4,18,11,18,,,19,male,,5,AfD,,6,6,,,,,,,,,,,,,,,1,symmetric,9,21,SM,AGV,115,-5,0,0,0,0,0.5,0.0,AGV vs. SM,negative,,,1,1,1_2,0,1,0,1,Value -3,0,0.0,1.0,,,symmetric,0.0,0.0,0.0,,,3,,1,0
141210_1516,1,18,5,0.92943966,0.64830446,1,-10,-30,SM,SM,1,Yes,1,0.0,-2.0,-1.0,-1.0,-1.0,-1.0,-1.0,-1.0,-1,-1.0,-1.0,,1,31,0.0,31.0,,,0,-10,-10,0,0.0,,19,,2,2,2,10.381098,1,,1,-3,-3,1,11,15,18,4,15,11,15,,,37,female,,3,Bündnis 90 / Die Grünen,,4,6,,,,,,,,,,,,,,,1,symmetric,9,21,SM,AGV,118,-5,0,0,0,0,0.5,0.0,AGV vs. SM,positive,,,1,1,1_2,0,1,1,0,Value 1,0,0.0,1.0,,,symmetric,0.0,0.0,0.0,,,1,,1,1
141210_1516,1,12,6,0.70222729,0.38781318,-1,-10,-30,SM,SM,1,No,0,0.0,-2.0,-1.0,-1.0,-1.0,-1.0,-1.0,-1.0,-1,-1.0,-1.0,,0,29,0.0,31.0,,,0,-10,-10,0,0.0,,22,,2,2,2,10.398967,1,,1,-1,-1,3,12,13,20,4,20,13,20,,,22,male,,6,SPD,,7,7,,,,,,,,,,,,,,,1,symmetric,9,21,SM,AGV,112,1,1,1,0,0,0.5,0.0,AGV vs. SM,negative,,,1,1,1_2,0,1,0,1,Value -1,0,0.0,1.0,,,symmetric,0.0,0.0,0.0,,,1,,1,1
141210_1516,1,13,6,0.39591077,0.33171678,-1,-10,-30,SM,SM,1,No,0,0.0,-2.0,-1.0,-1.0,-1.0,-1.0,-1.0,-1.0,-1,-1.0,-1.0,,0,7,0.0,28.0,,,0,-10,-10,0,0.0,,20,,2,2,2,10.416567,2,,1,-1,-1,3,12,13,20,4,20,12,20,,,19,male,,9,CDU/CSU,,6,4,,,,,,,,,,,,,,,1,symmetric,9,21,SM,AGV,113,1,1,1,0,0,0.5,0.0,AGV vs. SM,negative,,,1,1,1_2,0,1,0,1,Value -1,0,0.0,1.0,,,symmetric,0.0,0.0,0.0,,,1,,1,1
141210_1516,1,20,6,0.09607628,0.88702506,3,-10,-30,SM,SM,1,Yes,1,0.0,-2.0,-1.0,-1.0,-1.0,-1.0,-1.0,-1.0,-1,-1.0,-1.0,,1,32,0.0,33.0,,,0,-10,-10,0,0.0,,22,,2,2,2,10.439365,3,,1,-1,-1,3,12,13,20,4,13,12,13,,,22,male,,5,Bündnis 90 / Die Grünen,,6,4,,,,,,,,,,,,,,,1,symmetric,9,21,SM,AGV,120,1,1,1,0,0,0.5,0.0,AGV vs. SM,positive,,,1,1,1_2,0,1,1,0,Value 3,0,0.0,1.0,,,symmetric,0.0,0.0,0.0,,,3,,1,0
141210_1516,1,14,7,0.7232365,0.92581397,3,-10,-30,SM,SM,1,Yes,1,0.0,-2.0,-1.0,-1.0,-1.0,-1.0,-1.0,-1.0,-1,-1.0,-1.0,,1,26,0.0,16.0,,,1,-10,-10,0,0.0,,10,,2,2,2,10.955791,1,,1,3,-1,-3,14,16,17,4,17,16,17,,,21,female,,3,Nichtwähler,,2,7,,,,,,,,,,,,,,,1,symmetric,9,21,SM,AGV,114,-1,0,0,0,0,0.5,0.0,AGV vs. SM,positive,,,0,1,1_2,0,1,1,0,Value 3,0,0.0,1.0,,,symmetric,0.0,0.0,0.0,,,3,,1,0
141210_1516,1,16,7,0.63086545,0.43475172,-1,-10,-30,SM,AGV,2,No,0,0.0,-2.0,-1.0,-1.0,-1.0,-1.0,-1.0,-1.0,-1,-1.0,-1.0,,0,33,0.0,32.0,,,1,-10,-10,0,0.0,,19,,2,2,2,10.614146,3,,1,3,-1,-3,14,16,17,4,17,14,17,,,23,male,,6,FDP,,7,6,,,,,,,,,,,,,,,1,symmetric,9,21,SM,AGV,116,-1,0,0,0,0,0.5,0.0,AGV vs. SM,negative,,,1,1,1_2,0,1,0,1,Value -1,1,1.0,0.0,,,symmetric,1.0,1.0,1.0,,,1,,1,1
141210_1516,1,17,7,0.63341099,0.24689907,-3,-10,-30,SM,AGV,2,No,0,0.0,-2.0,-1.0,-1.0,-1.0,-1.0,-1.0,-1.0,-1,-1.0,-1.0,,0,33,0.0,33.0,,,1,-10,-10,0,0.0,,23,,2,2,2,10.523876,2,,1,3,-1,-3,14,16,17,4,16,14,16,,,18,male,,8,CDU/CSU,,3,3,,,,,,,,,,,,,,,1,symmetric,9,21,SM,AGV,117,-1,0,0,0,0,0.5,0.0,AGV vs. SM,negative,,,1,1,1_2,0,1,0,1,Value -3,1,1.0,0.0,,,symmetric,1.0,1.0,1.0,,,3,,1,1
141210_1516,2,1,1,0.61267811,0.96460819,3,-10,-30,SM,SM,1,No,0,0.0,-2.0,-1.0,-1.0,-1.0,-1.0,-1.0,-1.0,-1,-1.0,-1.0,,1,30,,32.0,,0.0,1,-10,-10,0,0.0,,22,,2,1,2,0.13376755,2,,1,3,-1,1,1,2,9,4,9,2,9,,,64,male,,3,Die Linke,,5,5,,,,,,,,,,,,,,,1,symmetric,9,21,SM,RAND,101,3,1,1,1,0,0.5,1.0,SM vs. RAND,positive,,,0,1,1_1,0,1,1,0,Value 3,1,,1.0,,0.0,symmetric,1.0,1.0,1.0,,,3,,0,1
141210_1516,2,2,1,0.32354537,0.49065003,-1,-10,-30,SM,SM,1,No,0,0.0,-2.0,-1.0,-1.0,-1.0,-1.0,-1.0,-1.0,-1,-1.0,-1.0,,0,35,,35.0,,0.0,0,-10,-10,0,0.0,,21,,2,1,2,0.21522413,3,,1,3,-1,1,1,2,9,4,9,1,9,,,26,male,,4,Die Linke,,2,6,,,,,,,,,,,,,,,1,symmetric,9,21,SM,RAND,102,3,1,1,1,0,0.5,1.0,SM vs. RAND,negative,,,1,1,1_1,0,1,0,1,Value -1,1,,1.0,,0.0,symmetric,1.0,1.0,1.0,,,1,,0,1
141210_1516,2,9,1,0.70781571,0.74024487,1,-10,-30,SM,SM,1,Yes,1,0.0,-2.0,-1.0,-1.0,-1.0,-1.0,-1.0,-1.0,-1,-1.0,-1.0,,1,29,,31.0,,0.0,0,-10,-10,0,0.0,,10,,2,1,2,0.094462514,1,,1,3,-1,1,1,2,9,4,2,1,2,,,26,male,,10,AfD,,8,8,,,,,,,,,,,,,,,1,symmetric,9,21,SM,RAND,109,3,1,1,1,0,0.5,1.0,SM vs. RAND,positive,,,0,1,1_1,0,1,1,0,Value 1,1,,1.0,,0.0,symmetric,1.0,1.0,1.0,,,1,,0,1
141210_1516,2,4,2,0.97439408,0.97402471,3,-10,-30,SM,SM,1,Yes,2,0.0,-2.0,-1.0,-1.0,-1.0,-1.0,-1.0,-1.0,-1,-1.0,-1.0,,1,34,,37.0,,0.0,1,-10,-10,1,3.0,,20,,2,1,2,0.42001638,2,,1,3,-3,1,4,6,8,4,8,6,8,,,25,female,,8,Nichtwähler,,3,8,,,,,,,,,,,,,,,1,symmetric,9,21,SM,RAND,104,1,1,1,1,0,0.5,1.0,SM vs. RAND,positive,,,1,1,1_1,0,1,1,0,Value 3,1,,1.0,,0.0,symmetric,1.0,1.0,1.0,,,3,,0,1
141210_1516,2,6,2,0.9906581,0.080889262,-3,-10,-30,SM,SM,1,No,0,0.0,-2.0,-1.0,-1.0,-1.0,-1.0,-1.0,-1.0,-1,-1.0,-1.0,,0,35,,37.0,,0.0,0,-10,-10,0,-3.0,,21,,2,1,2,0.2311884,1,,1,3,-3,1,4,6,8,4,8,4,8,,,21,male,,2,Die Linke,,3,6,,,,,,,,,,,,,,,1,symmetric,9,21,SM,RAND,106,1,1,1,1,0,0.5,1.0,SM vs. RAND,negative,,,1,1,1_1,0,1,0,1,Value -3,1,,1.0,,0.0,symmetric,1.0,1.0,1.0,,,3,,0,1
141210_1516,2,8,2,0.052799527,0.5058549,1,-10,-30,SM,SM,1,Yes,2,0.0,-2.0,-1.0,-1.0,-1.0,-1.0,-1.0,-1.0,-1,-1.0,-1.0,,1,34,,37.0,,0.0,0,-10,-10,1,1.0,,22,,2,1,2,0.34791717,3,,1,3,-3,1,4,6,8,4,6,4,6,,,23,female,,4,CDU/CSU,,8,4,,,,,,,,,,,,,,,1,symmetric,9,21,SM,RAND,108,1,1,1,1,0,0.5,1.0,SM vs. RAND,positive,,,0,1,1_1,0,1,1,0,Value 1,1,,1.0,,0.0,symmetric,1.0,1.0,1.0,,,1,,0,1
141210_1516,2,3,3,0.86154288,0.66959584,1,-10,-30,SM,SM,1,Yes,1,0.0,-2.0,-1.0,-1.0,-1.0,-1.0,-1.0,-1.0,-1,-1.0,-1.0,,1,35,,33.0,,0.0,1,-10,-10,0,0.0,,12,,2,1,2,0.91168708,1,,1,1,-1,-1,3,5,7,4,7,5,7,,,19,male,,6,FDP,,3,4,,,,,,,,,,,,,,,1,symmetric,9,21,SM,RAND,103,-1,0,0,0,0,0.5,0.0,SM vs. RAND,positive,,,1,1,1_1,0,1,1,0,Value 1,1,,1.0,,0.0,symmetric,1.0,1.0,1.0,,,1,,0,1
141210_1516,2,5,3,0.048496515,0.45664814,-1,-10,-30,SM,SM,1,No,0,0.0,-2.0,-1.0,-1.0,-1.0,-1.0,-1.0,-1.0,-1,-1.0,-1.0,,0,30,,37.0,,0.0,1,-10,-10,0,0.0,,22,,2,1,2,0.54649431,3,,1,1,-1,-1,3,5,7,4,7,3,7,,,26,male,,2,Sonstige,,5,8,,,,,,,,,,,,,,,1,symmetric,9,21,SM,RAND,105,-1,0,0,0,0,0.5,0.0,SM vs. RAND,negative,,,1,1,1_1,0,1,0,1,Value -1,1,,1.0,,0.0,symmetric,1.0,1.0,1.0,,,1,,0,1
141210_1516,2,7,3,0.72546339,0.29945841,-1,-10,-30,SM,RAND,2,No,0,0.0,-2.0,-1.0,-1.0,-1.0,-1.0,-1.0,-1.0,-1,-1.0,-1.0,,0,25,,26.0,,0.0,1,-10,-10,0,0.0,,24,,2,1,2,0.50749213,2,,1,1,-1,-1,3,5,7,4,5,3,5,,,23,female,,4,SPD,,8,7,,,,,,,,,,,,,,,1,symmetric,9,21,SM,RAND,107,-1,0,0,0,0,0.5,0.5,SM vs. RAND,negative,,,1,1,1_1,0,1,0,1,Value -1,0,,0.0,,1.0,symmetric,0.0,0.0,0.0,,,1,,0,0
141210_1516,2,10,4,0.93303818,0.28942981,-1,-10,-30,RAND,RAND,2,-1,0,0.0,-2.0,-1.0,-1.0,-1.0,-1.0,-1.0,-1.0,-1,-1.0,-1.0,,0,28,,0.0,,34.0,0,-10,-10,0,0.0,,22,,2,2,2,10.137065,1,,1,-1,1,-3,10,14,16,4,16,14,16,,,19,female,,6,CDU/CSU,,6,4,,,,,,,,,,,,,,,1,symmetric,9,21,SM,RAND,110,-3,0,0,0,0,0.5,0.5,SM vs. RAND,negative,,,1,1,1_2,0,1,0,1,Value -1,0,,0.0,,1.0,symmetric,0.0,0.0,0.0,,,1,,0,0
141210_1516,2,14,4,0.6306302,0.53458101,1,-10,-30,RAND,SM,1,-1,0,0.0,-2.0,-1.0,-1.0,-1.0,-1.0,-1.0,-1.0,-1,-1.0,-1.0,,1,27,,0.0,,28.0,0,-10,-10,0,0.0,,21,,2,2,2,10.433399,2,,1,-1,1,-3,10,14,16,4,16,10,16,,,21,female,,3,Nichtwähler,,2,7,,,,,,,,,,,,,,,1,symmetric,9,21,SM,RAND,114,-3,0,0,0,0,0.5,0.0,SM vs. RAND,positive,,,0,1,1_2,0,1,1,0,Value 1,1,,1.0,,0.0,symmetric,1.0,1.0,1.0,,,1,,0,1
141210_1516,2,16,4,0.41468281,0.17159462,-3,-10,-30,RAND,SM,1,-1,0,0.0,-2.0,-1.0,-1.0,-1.0,-1.0,-1.0,-1.0,-1,-1.0,-1.0,,0,33,,0.0,,34.0,1,-10,-10,1,0.0,,21,,2,2,2,10.153739,3,,1,-1,1,-3,10,14,16,4,14,10,14,,,23,male,,6,FDP,,7,6,,,,,,,,,,,,,,,1,symmetric,9,21,SM,RAND,116,-3,0,0,0,0,0.5,0.0,SM vs. RAND,negative,,,1,1,1_2,0,1,0,1,Value -3,1,,1.0,,0.0,symmetric,1.0,1.0,1.0,,,3,,0,1
141210_1516,2,11,5,0.57253802,0.060907338,-3,-10,-30,SM,SM,1,No,0,0.0,-2.0,-1.0,-1.0,-1.0,-1.0,-1.0,-1.0,-1,-1.0,-1.0,,0,30,,37.0,,0.0,0,-10,-10,0,0.0,,24,,2,2,2,10.574435,2,,1,-3,-3,-3,11,15,17,4,17,15,17,,,19,female,,5,Bündnis 90 / Die Grünen,,4,4,,,,,,,,,,,,,,,1,symmetric,9,21,SM,RAND,111,-9,0,0,0,0,0.5,0.0,SM vs. RAND,negative,,,1,1,1_2,0,1,0,1,Value -3,1,,1.0,,0.0,symmetric,1.0,1.0,1.0,,,3,,0,1
141210_1516,2,15,5,0.63013697,0.10853771,-3,-10,-30,SM,SM,1,No,0,0.0,-2.0,-1.0,-1.0,-1.0,-1.0,-1.0,-1.0,-1,-1.0,-1.0,,0,33,,36.0,,0.0,1,-10,-10,0,0.0,,21,,2,2,2,10.446935,1,,1,-3,-3,-3,11,15,17,4,17,11,17,,,19,male,,5,AfD,,6,6,,,,,,,,,,,,,,,1,symmetric,9,21,SM,RAND,115,-9,0,0,0,0,0.5,0.0,SM vs. RAND,negative,,,1,1,1_2,0,1,0,1,Value -3,1,,1.0,,0.0,symmetric,1.0,1.0,1.0,,,3,,0,1
141210_1516,2,17,5,0.32941833,0.2057111,-3,-10,-30,SM,SM,1,No,0,0.0,-2.0,-1.0,-1.0,-1.0,-1.0,-1.0,-1.0,-1,-1.0,-1.0,,0,27,,38.0,,0.0,0,-10,-10,0,0.0,,23,,2,2,2,10.573681,3,,1,-3,-3,-3,11,15,17,4,15,11,15,,,18,male,,8,CDU/CSU,,3,3,,,,,,,,,,,,,,,1,symmetric,9,21,SM,RAND,117,-9,0,0,0,0,0.5,0.0,SM vs. RAND,negative,,,1,1,1_2,0,1,0,1,Value -3,1,,1.0,,0.0,symmetric,1.0,1.0,1.0,,,3,,0,1
141210_1516,2,13,6,0.31900841,0.56567121,1,-10,-30,SM,SM,1,Yes,3,0.0,-2.0,-1.0,-1.0,-1.0,-1.0,-1.0,-1.0,-1,-1.0,-1.0,,1,28,,34.0,,0.0,1,-10,-10,1,1.0,,20,,2,2,2,10.631503,2,,1,1,1,1,13,19,21,4,21,19,21,,,19,male,,9,CDU/CSU,,6,4,,,,,,,,,,,,,,,1,symmetric,9,21,SM,RAND,113,3,1,1,1,0,0.5,1.0,SM vs. RAND,positive,,,1,1,1_2,0,1,1,0,Value 1,1,,1.0,,0.0,symmetric,1.0,1.0,1.0,,,1,,0,1
141210_1516,2,19,6,0.11139333,0.70694447,1,-10,-30,SM,SM,1,Yes,3,0.0,-2.0,-1.0,-1.0,-1.0,-1.0,-1.0,-1.0,-1,-1.0,-1.0,,1,30,,33.0,,0.0,0,-10,-10,1,1.0,,23,,2,2,2,10.644247,3,,1,1,1,1,13,19,21,4,21,13,21,,,22,male,,9,CDU/CSU,,3,1,,,,,,,,,,,,,,,1,symmetric,9,21,SM,RAND,119,3,1,1,1,0,0.5,1.0,SM vs. RAND,positive,,,1,1,1_2,0,1,1,0,Value 1,1,,1.0,,0.0,symmetric,1.0,1.0,1.0,,,1,,0,1
141210_1516,2,21,6,0.89641786,0.70263612,1,-10,-30,SM,SM,1,Yes,3,0.0,-2.0,-1.0,-1.0,-1.0,-1.0,-1.0,-1.0,-1,-1.0,-1.0,,1,30,,28.0,,0.0,1,-10,-10,1,1.0,,23,,2,2,2,10.724875,1,,1,1,1,1,13,19,21,4,19,13,19,,,24,female,,6,Nichtwähler,,7,5,,,,,,,,,,,,,,,1,symmetric,9,21,SM,RAND,121,3,1,1,1,0,0.5,1.0,SM vs. RAND,positive,,,0,1,1_2,0,1,1,0,Value 1,1,,1.0,,0.0,symmetric,1.0,1.0,1.0,,,1,,0,1
141210_1516,2,12,7,0.64693856,0.89695811,3,-10,-30,SM,SM,1,Yes,1,0.0,-2.0,-1.0,-1.0,-1.0,-1.0,-1.0,-1.0,-1,-1.0,-1.0,,1,29,,34.0,,0.0,0,-10,-10,0,0.0,,23,,2,2,2,10.950754,1,,1,3,-3,-1,12,18,20,4,20,18,20,,,22,male,,6,SPD,,7,7,,,,,,,,,,,,,,,1,symmetric,9,21,SM,RAND,112,-1,0,0,0,0,0.5,0.0,SM vs. RAND,positive,,,1,1,1_2,0,1,1,0,Value 3,1,,1.0,,0.0,symmetric,1.0,1.0,1.0,,,3,,0,1
141210_1516,2,18,7,0.530213,0.096571907,-3,-10,-30,SM,SM,1,No,0,0.0,-2.0,-1.0,-1.0,-1.0,-1.0,-1.0,-1.0,-1,-1.0,-1.0,,0,32,,36.0,,0.0,1,-10,-10,0,0.0,,21,,2,2,2,10.858829,2,,1,3,-3,-1,12,18,20,4,20,12,20,,,37,female,,3,Bündnis 90 / Die Grünen,,4,6,,,,,,,,,,,,,,,1,symmetric,9,21,SM,RAND,118,-1,0,0,0,0,0.5,0.0,SM vs. RAND,negative,,,1,1,1_2,0,1,0,1,Value -3,1,,1.0,,0.0,symmetric,1.0,1.0,1.0,,,3,,0,1
141210_1516,2,20,7,0.084032796,0.27535748,-1,-10,-30,SM,SM,1,No,0,0.0,-2.0,-1.0,-1.0,-1.0,-1.0,-1.0,-1.0,-1,-1.0,-1.0,,0,32,,35.0,,0.0,0,-10,-10,0,0.0,,23,,2,2,2,10.827166,3,,1,3,-3,-1,12,18,20,4,18,12,18,,,22,male,,5,Bündnis 90 / Die Grünen,,6,4,,,,,,,,,,,,,,,1,symmetric,9,21,SM,RAND,120,-1,0,0,0,0,0.5,0.0,SM vs. RAND,negative,,,1,1,1_2,0,1,0,1,Value -1,1,,1.0,,0.0,symmetric,1.0,1.0,1.0,,,1,,0,1
141210_1516,3,2,1,0.80986536,0.30195346,-1,-1,3,AGV,AGV,1,-1,0,0.125,-1.0,1.0,-1.0,-1.0,-1.0,-1.0,-1.0,-1,-1.0,-1.0,,0,35,30.0,,,0.0,1,1,3,1,-0.875,,13,,2,1,2,0.20096545,1,,1,-1,-1,3,2,8,9,4,9,8,9,,,26,male,,4,Die Linke,,2,6,,,,,,,,,,,,,,,1,symmetric,9,21,AGV,RAND,102,1,1,1,0,0,0.5,1.0,AGV vs. RAND,negative,1.0,1.0,1,1,1_1,0,1,0,1,Value -1,1,1.0,,,0.0,symmetric,1.0,1.0,1.0,,,1,,0,1
141210_1516,3,8,1,0.62622827,0.3458589,-1,1,3,AGV,AGV,1,-1,0,0.125,-1.0,-1.0,1.0,-1.0,-1.0,-1.0,-1.0,-1,-1.0,-1.0,,0,30,28.0,,,0.0,0,-1,3,1,-0.875,,9,,2,1,2,0.18610381,2,,1,-1,-1,3,2,8,9,4,9,2,9,,,23,female,,4,CDU/CSU,,8,4,,,,,,,,,,,,,,,1,symmetric,9,21,AGV,RAND,108,1,1,1,0,0,0.5,1.0,AGV vs. RAND,negative,0.0,0.0,0,1,1_1,0,1,0,1,Value -1,1,1.0,,,0.0,symmetric,1.0,1.0,1.0,,,1,,0,1
141210_1516,3,9,1,0.15693556,0.93204874,3,3,3,AGV,AGV,1,-1,0,-0.25,-1.0,-1.0,-1.0,-1.0,-1.0,1.0,-1.0,-1,-1.0,-1.0,,1,32,33.0,,,0.0,0,-1,1,1,2.75,,11,,2,1,2,0.14153135,3,,1,-1,-1,3,2,8,9,4,8,2,8,,,26,male,,10,AfD,,8,8,,,,,,,,,,,,,,,1,symmetric,9,21,AGV,RAND,109,1,1,1,0,0,0.5,1.0,AGV vs. RAND,positive,1.0,1.0,0,1,1_1,0,1,1,0,Value 3,1,1.0,,,0.0,symmetric,1.0,1.0,1.0,,,3,,0,1
141210_1516,3,1,2,0.84693885,0.50167155,1,-10,-30,RAND,RAND,2,-1,0,0.0,-2.0,-1.0,-1.0,-1.0,-1.0,-1.0,-1.0,-1,-1.0,-1.0,,1,30,0.0,,,38.0,0,-10,-10,0,0.0,,24,,2,1,2,0.7356382,1,,1,1,1,3,1,3,6,4,6,3,6,,,64,male,,3,Die Linke,,5,5,,,,,,,,,,,,,,,1,symmetric,9,21,AGV,RAND,101,5,1,1,1,0,0.5,0.5,AGV vs. RAND,positive,,,0,1,1_1,0,1,1,0,Value 1,0,0.0,,,1.0,symmetric,0.0,0.0,0.0,,,1,,0,0
141210_1516,3,3,2,0.76814419,0.71311176,1,-10,-30,RAND,AGV,1,-1,0,0.0,-2.0,-1.0,-1.0,-1.0,-1.0,-1.0,-1.0,-1,-1.0,-1.0,,1,11,0.0,,,25.0,0,-10,-10,0,0.0,,-34,,2,1,2,0.48698446,2,,1,1,1,3,1,3,6,4,6,1,6,,,19,male,,6,FDP,,3,4,,,,,,,,,,,,,,,1,symmetric,9,21,AGV,RAND,103,5,1,1,1,0,0.5,1.0,AGV vs. RAND,positive,,,1,1,1_1,0,1,1,0,Value 1,1,1.0,,,0.0,symmetric,1.0,1.0,1.0,,,1,,0,1
141210_1516,3,6,2,0.017119784,0.78511012,3,-10,-30,RAND,AGV,1,-1,0,0.0,-2.0,-1.0,-1.0,-1.0,-1.0,-1.0,-1.0,-1,-1.0,-1.0,,1,35,0.0,,,36.0,1,-10,-10,1,0.0,,23,,2,1,2,0.45826316,3,,1,1,1,3,1,3,6,4,3,1,3,,,21,male,,2,Die Linke,,3,6,,,,,,,,,,,,,,,1,symmetric,9,21,AGV,RAND,106,5,1,1,1,0,0.5,1.0,AGV vs. RAND,positive,,,1,1,1_1,0,1,1,0,Value 3,1,1.0,,,0.0,symmetric,1.0,1.0,1.0,,,3,,0,1
141210_1516,3,4,3,0.23674564,0.70934033,1,1,5,AGV,RAND,2,-1,0,0.125,-1.0,1.0,-1.0,-1.0,-1.0,-1.0,-1.0,-1,-1.0,-1.0,,1,34,34.0,,,0.0,1,3,1,1,1.125,,16,,2,1,2,0.80753541,3,,1,1,3,1,4,5,7,4,7,5,7,,,25,female,,8,Nichtwähler,,3,8,,,,,,,,,,,,,,,1,symmetric,9,21,AGV,RAND,104,5,1,1,1,0,0.5,0.5,AGV vs. RAND,positive,1.0,1.0,1,1,1_1,0,1,1,0,Value 1,0,0.0,,,1.0,symmetric,0.0,0.0,0.0,,,1,,0,0
141210_1516,3,5,3,0.45602921,0.94776922,3,3,5,AGV,AGV,1,-1,0,-0.25,-1.0,-1.0,-1.0,-1.0,1.0,-1.0,-1.0,-1,-1.0,-1.0,,1,33,17.0,,,0.0,0,1,1,1,2.75,,14,,2,1,2,0.85032946,2,,1,1,3,1,4,5,7,4,7,4,7,,,26,male,,2,Sonstige,,5,8,,,,,,,,,,,,,,,1,symmetric,9,21,AGV,RAND,105,5,1,1,1,0,0.5,1.0,AGV vs. RAND,positive,1.0,1.0,1,1,1_1,0,1,1,0,Value 3,1,1.0,,,0.0,symmetric,1.0,1.0,1.0,,,3,,0,1
141210_1516,3,7,3,0.61230522,0.73221612,1,1,5,AGV,AGV,1,-1,0,0.125,-1.0,1.0,-1.0,-1.0,-1.0,-1.0,-1.0,-1,-1.0,-1.0,,1,29,28.0,,,0.0,0,1,3,1,1.125,,14,,2,1,2,0.80008763,1,,1,1,3,1,4,5,7,4,5,4,5,,,23,female,,4,SPD,,8,7,,,,,,,,,,,,,,,1,symmetric,9,21,AGV,RAND,107,5,1,1,1,0,0.5,1.0,AGV vs. RAND,positive,1.0,1.0,1,1,1_1,0,1,1,0,Value 1,1,1.0,,,0.0,symmetric,1.0,1.0,1.0,,,1,,0,1
141210_1516,3,10,4,0.8973639,0.40750566,-1,-1,-3,AGV,AGV,1,-1,0,0.0,-1.0,-1.0,-1.0,-1.0,-1.0,-1.0,-1.0,1,-1.0,-1.0,,0,31,24.0,,,0.0,1,-1,-1,0,0.0,,16,,2,2,2,10.244042,1,,1,-1,-1,-1,10,18,19,4,19,18,19,,,19,female,,6,CDU/CSU,,6,4,,,,,,,,,,,,,,,1,symmetric,9,21,AGV,RAND,110,-3,0,0,0,0,0.5,0.0,AGV vs. RAND,negative,1.0,1.0,1,1,1_2,0,1,0,1,Value -1,1,1.0,,,0.0,symmetric,1.0,1.0,1.0,,,1,,0,1
141210_1516,3,18,4,0.27634677,0.26933402,-1,-1,-3,AGV,AGV,1,-1,0,0.0,-1.0,-1.0,-1.0,-1.0,-1.0,-1.0,-1.0,1,-1.0,-1.0,,0,29,32.0,,,0.0,0,-1,-1,0,0.0,,21,,2,2,2,10.271766,3,,1,-1,-1,-1,10,18,19,4,19,10,19,,,37,female,,3,Bündnis 90 / Die Grünen,,4,6,,,,,,,,,,,,,,,1,symmetric,9,21,AGV,RAND,118,-3,0,0,0,0,0.5,0.0,AGV vs. RAND,negative,1.0,1.0,1,1,1_2,0,1,0,1,Value -1,1,1.0,,,0.0,symmetric,1.0,1.0,1.0,,,1,,0,1
141210_1516,3,19,4,0.48235294,0.43334243,-1,-1,-3,AGV,AGV,1,-1,0,0.0,-1.0,-1.0,-1.0,-1.0,-1.0,-1.0,-1.0,1,-1.0,-1.0,,0,28,30.0,,,0.0,0,-1,-1,0,0.0,,20,,2,2,2,10.055501,2,,1,-1,-1,-1,10,18,19,4,18,10,18,,,22,male,,9,CDU/CSU,,3,1,,,,,,,,,,,,,,,1,symmetric,9,21,AGV,RAND,119,-3,0,0,0,0,0.5,0.0,AGV vs. RAND,negative,1.0,1.0,1,1,1_2,0,1,0,1,Value -1,1,1.0,,,0.0,symmetric,1.0,1.0,1.0,,,1,,0,1
141210_1516,3,12,5,0.051602092,0.6967839,1,3,3,AGV,RAND,2,-1,0,-0.25,-1.0,-1.0,-1.0,-1.0,-1.0,1.0,-1.0,-1,-1.0,-1.0,,1,36,32.0,,,0.0,0,1,-1,1,0.75,,20,,2,2,2,10.501652,3,,1,1,3,-3,12,14,15,4,15,14,15,,,22,male,,6,SPD,,7,7,,,,,,,,,,,,,,,1,symmetric,9,21,AGV,RAND,112,1,1,1,1,0,0.5,0.5,AGV vs. RAND,positive,0.0,1.0,1,1,1_2,0,1,1,0,Value 1,0,0.0,,,1.0,symmetric,0.0,0.0,0.0,,,1,,0,0
141210_1516,3,14,5,0.34080541,0.77873665,3,1,3,AGV,RAND,2,-1,0,0.125,-1.0,-1.0,1.0,-1.0,-1.0,-1.0,-1.0,-1,-1.0,-1.0,,1,24,24.0,,,0.0,1,3,-1,1,3.125,,14,,2,2,2,10.460314,2,,1,1,3,-3,12,14,15,4,15,12,15,,,21,female,,3,Nichtwähler,,2,7,,,,,,,,,,,,,,,1,symmetric,9,21,AGV,RAND,114,1,1,1,1,0,0.5,0.5,AGV vs. RAND,positive,0.0,1.0,0,1,1_2,0,1,1,0,Value 3,0,0.0,,,1.0,symmetric,0.0,0.0,0.0,,,3,,0,0
141210_1516,3,15,5,0.704436,0.21550189,-3,-1,3,AGV,AGV,1,-1,0,0.125,-1.0,1.0,-1.0,-1.0,-1.0,-1.0,-1.0,-1,-1.0,-1.0,,0,29,33.0,,,0.0,1,3,1,1,-2.875,,17,,2,2,2,10.357369,1,,1,1,3,-3,12,14,15,4,14,12,14,,,19,male,,5,AfD,,6,6,,,,,,,,,,,,,,,1,symmetric,9,21,AGV,RAND,115,1,1,1,1,0,0.5,1.0,AGV vs. RAND,negative,0.0,1.0,1,1,1_2,0,1,0,1,Value -3,1,1.0,,,0.0,symmetric,1.0,1.0,1.0,,,3,,0,1
141210_1516,3,11,6,0.57092088,0.46697557,-1,-1,5,AGV,AGV,1,-1,0,0.25,1.0,-1.0,-1.0,-1.0,-1.0,-1.0,-1.0,-1,-1.0,-1.0,,0,34,26.0,,,0.0,1,3,3,1,-0.75,,17,,2,2,2,10.502635,2,,1,-1,1,3,11,16,17,4,17,16,17,,,19,female,,5,Bündnis 90 / Die Grünen,,4,4,,,,,,,,,,,,,,,1,symmetric,9,21,AGV,RAND,111,3,1,1,1,0,0.5,1.0,AGV vs. RAND,negative,1.0,1.0,1,1,1_2,0,1,0,1,Value -1,1,1.0,,,0.0,symmetric,1.0,1.0,1.0,,,1,,0,1
141210_1516,3,16,6,0.018172985,0.56024575,1,3,5,AGV,AGV,1,-1,0,-0.125,-1.0,-1.0,1.0,-1.0,-1.0,-1.0,-1.0,-1,-1.0,-1.0,,1,35,34.0,,,0.0,1,-1,3,1,0.875,,22,,2,2,2,10.671484,3,,1,-1,1,3,11,16,17,4,17,11,17,,,23,male,,6,FDP,,7,6,,,,,,,,,,,,,,,1,symmetric,9,21,AGV,RAND,116,3,1,1,1,0,0.5,1.0,AGV vs. RAND,positive,0.0,1.0,1,1,1_2,0,1,1,0,Value 1,1,1.0,,,0.0,symmetric,1.0,1.0,1.0,,,1,,0,1
141210_1516,3,17,6,0.69212246,0.95530951,3,3,5,AGV,AGV,1,-1,0,-0.125,-1.0,-1.0,1.0,-1.0,-1.0,-1.0,-1.0,-1,-1.0,-1.0,,1,37,31.0,,,0.0,1,-1,3,1,2.875,,13,,2,2,2,10.769899,1,,1,-1,1,3,11,16,17,4,16,11,16,,,18,male,,8,CDU/CSU,,3,3,,,,,,,,,,,,,,,1,symmetric,9,21,AGV,RAND,117,3,1,1,1,0,0.5,1.0,AGV vs. RAND,positive,1.0,1.0,1,1,1_2,0,1,1,0,Value 3,1,1.0,,,0.0,symmetric,1.0,1.0,1.0,,,3,,0,1
141210_1516,3,13,7,0.93217421,0.42115292,-1,-3,-1,AGV,AGV,1,-1,0,-0.125,-1.0,-1.0,1.0,-1.0,-1.0,-1.0,-1.0,-1,-1.0,-1.0,,0,33,19.0,,,0.0,1,-1,3,0,-0.125,,11,,2,2,2,10.883311,1,,1,-1,-3,3,13,20,21,4,21,20,21,,,19,male,,9,CDU/CSU,,6,4,,,,,,,,,,,,,,,1,symmetric,9,21,AGV,RAND,113,-1,0,0,0,0,0.5,0.0,AGV vs. RAND,negative,0.0,1.0,1,1,1_2,0,1,0,1,Value -1,1,1.0,,,0.0,symmetric,1.0,1.0,1.0,,,1,,0,1
141210_1516,3,20,7,0.080787025,0.22991617,-3,-1,-1,AGV,AGV,1,-1,0,0.25,-1.0,-1.0,-1.0,1.0,-1.0,-1.0,-1.0,-1,-1.0,-1.0,,0,36,28.0,,,0.0,0,-3,3,0,0.25,,19,,2,2,2,10.870886,3,,1,-1,-3,3,13,20,21,4,21,13,21,,,22,male,,5,Bündnis 90 / Die Grünen,,6,4,,,,,,,,,,,,,,,1,symmetric,9,21,AGV,RAND,120,-1,0,0,0,0,0.5,0.0,AGV vs. RAND,negative,0.0,1.0,1,1,1_2,0,1,0,1,Value -3,1,1.0,,,0.0,symmetric,1.0,1.0,1.0,,,3,,0,1
141210_1516,3,21,7,0.48283049,0.97375387,3,3,-1,AGV,RAND,2,-1,0,-0.125,-1.0,-1.0,-1.0,-1.0,-1.0,-1.0,-1.0,-1,1.0,-1.0,,1,33,-2.0,,,0.0,0,-3,-1,0,-0.125,,14,,2,2,2,10.846573,2,,1,-1,-3,3,13,20,21,4,20,13,20,,,24,female,,6,Nichtwähler,,7,5,,,,,,,,,,,,,,,1,symmetric,9,21,AGV,RAND,121,-1,0,0,0,0,0.5,0.5,AGV vs. RAND,positive,1.0,1.0,0,1,1_2,0,1,1,0,Value 3,0,0.0,,,1.0,symmetric,0.0,0.0,0.0,,,3,,0,0
141210_1516,4,1,1,0.90393436,0.17059815,-3,1,5,AGV,NSQ,1,-1,0,0.125,-1.0,1.0,-1.0,-1.0,-1.0,-1.0,-1.0,-1,-1.0,-1.0,,0,34,33.0,,0.0,,1,3,1,1,-2.875,,19,,2,1,2,0.25812548,2,,1,-3,1,1,1,4,7,4,7,4,7,,,64,male,,3,Die Linke,,5,5,,,,,,,,,,,,,,,1,symmetric,9,21,NSQ,AGV,101,-1,0,0,1,0,0.5,0.0,AGV vs. NSQ,negative,0.0,0.0,0,1,1_1,0,1,0,1,Value -3,0,0.0,,1.0,,symmetric,0.0,0.0,0.0,,,3,,1,1
141210_1516,4,4,1,0.82037503,0.54360074,1,3,5,AGV,NSQ,1,-1,0,-0.25,-1.0,-1.0,-1.0,-1.0,1.0,-1.0,-1.0,-1,-1.0,-1.0,,1,32,24.0,,0.0,,0,1,1,1,0.75,,14,,2,1,2,0.17702679,3,,1,-3,1,1,1,4,7,4,7,1,7,,,25,female,,8,Nichtwähler,,3,8,,,,,,,,,,,,,,,1,symmetric,9,21,NSQ,AGV,104,-1,0,0,1,0,0.5,0.0,AGV vs. NSQ,positive,0.0,1.0,1,1,1_1,0,1,1,0,Value 1,0,0.0,,1.0,,symmetric,0.0,0.0,0.0,,,1,,1,0
141210_1516,4,7,1,0.96494937,0.56947201,1,1,5,AGV,AGV,2,-1,0,0.125,-1.0,1.0,-1.0,-1.0,-1.0,-1.0,-1.0,-1,-1.0,-1.0,,1,28,36.0,,0.0,,1,1,3,1,1.125,,21,,2,1,2,0.26565588,1,,1,-3,1,1,1,4,7,4,4,1,4,,,23,female,,4,SPD,,8,7,,,,,,,,,,,,,,,1,symmetric,9,21,NSQ,AGV,107,-1,0,0,1,0,0.5,0.0,AGV vs. NSQ,positive,1.0,1.0,1,1,1_1,0,1,1,0,Value 1,1,1.0,,0.0,,symmetric,1.0,1.0,1.0,,,1,,1,1
141210_1516,4,2,2,0.99997956,0.89989489,3,3,1,AGV,AGV,2,-1,0,-0.125,-1.0,-1.0,-1.0,-1.0,-1.0,-1.0,1.0,-1,-1.0,-1.0,,1,35,32.0,,0.0,,0,-3,1,1,2.875,,19,,2,1,2,0.28923914,1,,1,3,-3,1,2,5,6,4,6,5,6,,,26,male,,4,Die Linke,,2,6,,,,,,,,,,,,,,,1,symmetric,9,21,NSQ,AGV,102,1,1,1,1,0,0.5,1.0,AGV vs. NSQ,positive,1.0,1.0,1,1,1_1,0,1,1,0,Value 3,1,1.0,,0.0,,symmetric,1.0,1.0,1.0,,,3,,1,1
141210_1516,4,5,2,0.70656019,0.14605941,-3,-3,1,AGV,NSQ,1,-1,0,-0.125,-1.0,1.0,-1.0,-1.0,-1.0,-1.0,-1.0,-1,-1.0,-1.0,,0,35,26.0,,0.0,,1,3,1,1,-3.125,,16,,2,1,2,0.3150036,2,,1,3,-3,1,2,5,6,4,6,2,6,,,26,male,,2,Sonstige,,5,8,,,,,,,,,,,,,,,1,symmetric,9,21,NSQ,AGV,105,1,1,1,1,0,0.5,0.0,AGV vs. NSQ,negative,1.0,1.0,1,1,1_1,0,1,0,1,Value -3,0,0.0,,1.0,,symmetric,0.0,0.0,0.0,,,3,,1,1
141210_1516,4,6,2,0.69331002,0.71894884,1,1,1,AGV,NSQ,1,-1,0,0.25,-1.0,-1.0,-1.0,1.0,-1.0,-1.0,-1.0,-1,-1.0,-1.0,,1,31,34.0,,0.0,,0,3,-3,1,1.25,,23,,2,1,2,0.74742138,3,,1,3,-3,1,2,5,6,4,5,2,5,,,21,male,,2,Die Linke,,3,6,,,,,,,,,,,,,,,1,symmetric,9,21,NSQ,AGV,106,1,1,1,1,0,0.5,0.0,AGV vs. NSQ,positive,1.0,1.0,1,1,1_1,0,1,1,0,Value 1,0,0.0,,1.0,,symmetric,0.0,0.0,0.0,,,1,,1,0
141210_1516,4,3,3,0.018832587,0.95550495,3,3,3,AGV,AGV,2,-1,0,0.0,-1.0,-1.0,-1.0,1.0,-1.0,-1.0,-1.0,-1,-1.0,-1.0,,1,25,33.0,,0.0,,1,3,-3,1,3.0,,20,,2,1,2,0.79732966,3,,1,3,3,-1,3,8,9,4,9,8,9,,,19,male,,6,FDP,,3,4,,,,,,,,,,,,,,,1,symmetric,9,21,NSQ,AGV,103,5,1,1,1,0,0.5,1.0,AGV vs. NSQ,positive,1.0,1.0,1,1,1_1,0,1,1,0,Value 3,1,1.0,,0.0,,symmetric,1.0,1.0,1.0,,,3,,1,1
141210_1516,4,8,3,0.53339046,0.88883913,3,3,3,AGV,AGV,2,-1,0,0.0,-1.0,-1.0,-1.0,1.0,-1.0,-1.0,-1.0,-1,-1.0,-1.0,,1,34,35.0,,0.0,,0,3,-3,1,3.0,,15,,2,1,2,0.87850797,2,,1,3,3,-1,3,8,9,4,9,3,9,,,23,female,,4,CDU/CSU,,8,4,,,,,,,,,,,,,,,1,symmetric,9,21,NSQ,AGV,108,5,1,1,1,0,0.5,1.0,AGV vs. NSQ,positive,1.0,1.0,0,1,1_1,0,1,1,0,Value 3,1,1.0,,0.0,,symmetric,1.0,1.0,1.0,,,3,,1,1
141210_1516,4,9,3,0.69577742,0.34187922,-1,-3,3,AGV,AGV,2,-1,0,0.0,1.0,-1.0,-1.0,-1.0,-1.0,-1.0,-1.0,-1,-1.0,-1.0,,0,27,26.0,,0.0,,0,3,3,1,-1.0,,2,,2,1,2,0.87832296,1,,1,3,3,-1,3,8,9,4,8,3,8,,,26,male,,10,AfD,,8,8,,,,,,,,,,,,,,,1,symmetric,9,21,NSQ,AGV,109,5,1,1,1,0,0.5,1.0,AGV vs. NSQ,negative,0.0,1.0,0,1,1_1,0,1,0,1,Value -1,1,1.0,,0.0,,symmetric,1.0,1.0,1.0,,,1,,1,0
141210_1516,4,14,4,0.49462551,0.4076649,-1,-10,-30,NSQ,AGV,2,-1,0,0.0,-2.0,-1.0,-1.0,-1.0,-1.0,-1.0,-1.0,-1,-1.0,-1.0,,0,28,0.0,,34.0,,1,-10,-10,0,0.0,,23,,2,2,2,10.387209,2,,1,-1,3,-3,14,20,21,4,21,20,21,,,21,female,,3,Nichtwähler,,2,7,,,,,,,,,,,,,,,1,symmetric,9,21,NSQ,AGV,114,-1,0,0,0,0,0.5,0.0,AGV vs. NSQ,negative,,,0,1,1_2,0,1,0,1,Value -1,1,1.0,,0.0,,symmetric,1.0,1.0,1.0,,,1,,1,0
141210_1516,4,20,4,0.37343618,0.9586587,3,-10,-30,NSQ,AGV,2,-1,0,0.0,-2.0,-1.0,-1.0,-1.0,-1.0,-1.0,-1.0,-1,-1.0,-1.0,,1,33,0.0,,33.0,,1,-10,-10,0,0.0,,14,,2,2,2,10.223015,3,,1,-1,3,-3,14,20,21,4,21,14,21,,,22,male,,5,Bündnis 90 / Die Grünen,,6,4,,,,,,,,,,,,,,,1,symmetric,9,21,NSQ,AGV,120,-1,0,0,0,0,0.5,0.0,AGV vs. NSQ,positive,,,1,1,1_2,0,1,1,0,Value 3,1,1.0,,0.0,,symmetric,1.0,1.0,1.0,,,3,,1,1
141210_1516,4,21,4,0.70933646,0.11799018,-3,-10,-30,NSQ,NSQ,1,-1,0,0.0,-2.0,-1.0,-1.0,-1.0,-1.0,-1.0,-1.0,-1,-1.0,-1.0,,0,31,0.0,,35.0,,0,-10,-10,0,0.0,,23,,2,2,2,10.261376,1,,1,-1,3,-3,14,20,21,4,20,14,20,,,24,female,,6,Nichtwähler,,7,5,,,,,,,,,,,,,,,1,symmetric,9,21,NSQ,AGV,121,-1,0,0,0,0,0.5,0.0,AGV vs. NSQ,negative,,,0,1,1_2,0,1,0,1,Value -3,0,0.0,,1.0,,symmetric,0.0,0.0,0.0,,,3,,1,1
141210_1516,4,10,5,0.65639108,0.12347061,-3,-1,-3,AGV,AGV,2,-1,0,0.125,-1.0,-1.0,-1.0,-1.0,-1.0,-1.0,1.0,-1,-1.0,-1.0,,0,28,29.0,,0.0,,1,1,-3,0,0.125,,18,,2,2,2,10.424608,2,,1,-3,3,-3,10,15,17,4,17,15,17,,,19,female,,6,CDU/CSU,,6,4,,,,,,,,,,,,,,,1,symmetric,9,21,NSQ,AGV,110,-3,0,0,0,0,0.5,0.0,AGV vs. NSQ,negative,0.0,1.0,1,1,1_2,0,1,0,1,Value -3,1,1.0,,0.0,,symmetric,1.0,1.0,1.0,,,3,,1,0
141210_1516,4,15,5,0.72478986,0.9642368,3,1,-3,AGV,AGV,2,-1,0,0.125,-1.0,-1.0,-1.0,-1.0,-1.0,-1.0,-1.0,-1,1.0,-1.0,,1,32,34.0,,0.0,,0,-1,-3,0,0.125,,15,,2,2,2,10.418059,1,,1,-3,3,-3,10,15,17,4,17,10,17,,,19,male,,5,AfD,,6,6,,,,,,,,,,,,,,,1,symmetric,9,21,NSQ,AGV,115,-3,0,0,0,0,0.5,0.0,AGV vs. NSQ,positive,0.0,1.0,1,1,1_2,0,1,1,0,Value 3,1,1.0,,0.0,,symmetric,1.0,1.0,1.0,,,3,,1,1
141210_1516,4,17,5,0.31776434,0.060939163,-3,-3,-3,AGV,AGV,2,-1,0,-0.25,-1.0,-1.0,-1.0,-1.0,-1.0,1.0,-1.0,-1,-1.0,-1.0,,0,35,31.0,,0.0,,1,-1,1,0,-0.25,,21,,2,2,2,10.461966,3,,1,-3,3,-3,10,15,17,4,15,10,15,,,18,male,,8,CDU/CSU,,3,3,,,,,,,,,,,,,,,1,symmetric,9,21,NSQ,AGV,117,-3,0,0,0,0,0.5,0.0,AGV vs. NSQ,negative,1.0,1.0,1,1,1_2,0,1,0,1,Value -3,1,1.0,,0.0,,symmetric,1.0,1.0,1.0,,,3,,1,0
141210_1516,4,12,6,0.45726565,0.29744428,-1,-1,3,AGV,NSQ,1,-1,0,0.125,-1.0,1.0,-1.0,-1.0,-1.0,-1.0,-1.0,-1,-1.0,-1.0,,0,31,34.0,,0.0,,0,3,1,1,-0.875,,21,,2,2,2,10.675211,2,,1,-1,1,1,12,16,18,4,18,16,18,,,22,male,,6,SPD,,7,7,,,,,,,,,,,,,,,1,symmetric,9,21,NSQ,AGV,112,1,1,1,1,0,0.5,0.0,AGV vs. NSQ,negative,1.0,1.0,1,1,1_2,0,1,0,1,Value -1,0,0.0,,1.0,,symmetric,0.0,0.0,0.0,,,1,,1,1
141210_1516,4,16,6,0.92814147,0.55316973,1,3,3,AGV,AGV,2,-1,0,-0.25,-1.0,-1.0,-1.0,-1.0,-1.0,1.0,-1.0,-1,-1.0,-1.0,,1,35,35.0,,0.0,,1,-1,1,1,0.75,,21,,2,2,2,10.815884,1,,1,-1,1,1,12,16,18,4,18,12,18,,,23,male,,6,FDP,,7,6,,,,,,,,,,,,,,,1,symmetric,9,21,NSQ,AGV,116,1,1,1,1,0,0.5,1.0,AGV vs. NSQ,positive,0.0,1.0,1,1,1_2,0,1,1,0,Value 1,1,1.0,,0.0,,symmetric,1.0,1.0,1.0,,,1,,1,1
141210_1516,4,18,6,0.15749176,0.51926923,1,1,3,AGV,AGV,2,-1,0,0.125,-1.0,-1.0,1.0,-1.0,-1.0,-1.0,-1.0,-1,-1.0,-1.0,,1,35,34.0,,0.0,,1,-1,3,1,1.125,,21,,2,2,2,10.691573,3,,1,-1,1,1,12,16,18,4,16,12,16,,,37,female,,3,Bündnis 90 / Die Grünen,,4,6,,,,,,,,,,,,,,,1,symmetric,9,21,NSQ,AGV,118,1,1,1,1,0,0.5,1.0,AGV vs. NSQ,positive,1.0,1.0,1,1,1_2,0,1,1,0,Value 1,1,1.0,,0.0,,symmetric,1.0,1.0,1.0,,,1,,1,1
141210_1516,4,11,7,0.082044564,0.55595833,1,3,3,AGV,AGV,2,-1,0,0.0,-1.0,-1.0,-1.0,1.0,-1.0,-1.0,-1.0,-1,-1.0,-1.0,,1,35,33.0,,0.0,,1,3,-3,1,1.0,,-1,,2,2,2,10.9114,3,,1,1,1,-3,11,13,19,4,19,13,19,,,19,female,,5,Bündnis 90 / Die Grünen,,4,4,,,,,,,,,,,,,,,1,symmetric,9,21,NSQ,AGV,111,-1,0,0,1,0,0.5,0.0,AGV vs. NSQ,positive,0.0,1.0,1,1,1_2,0,1,1,0,Value 1,1,1.0,,0.0,,symmetric,1.0,1.0,1.0,,,1,,1,1
141210_1516,4,13,7,0.083590053,0.55402482,1,3,3,AGV,NSQ,1,-1,0,0.0,-1.0,-1.0,-1.0,1.0,-1.0,-1.0,-1.0,-1,-1.0,-1.0,,1,28,32.0,,0.0,,0,3,-3,1,1.0,,3,,2,2,2,10.888799,2,,1,1,1,-3,11,13,19,4,19,11,19,,,19,male,,9,CDU/CSU,,6,4,,,,,,,,,,,,,,,1,symmetric,9,21,NSQ,AGV,113,-1,0,0,1,0,0.5,0.0,AGV vs. NSQ,positive,0.0,1.0,1,1,1_2,0,1,1,0,Value 1,0,0.0,,1.0,,symmetric,0.0,0.0,0.0,,,1,,1,0
141210_1516,4,19,7,0.6305787,0.13576952,-3,-3,3,AGV,AGV,2,-1,0,0.0,1.0,-1.0,-1.0,-1.0,-1.0,-1.0,-1.0,-1,-1.0,-1.0,,0,33,33.0,,0.0,,0,3,3,1,-3.0,,-1,,2,2,2,10.964087,1,,1,1,1,-3,11,13,19,4,13,11,13,,,22,male,,9,CDU/CSU,,3,1,,,,,,,,,,,,,,,1,symmetric,9,21,NSQ,AGV,119,-1,0,0,1,0,0.5,0.0,AGV vs. NSQ,negative,1.0,1.0,1,1,1_2,0,1,0,1,Value -3,1,1.0,,0.0,,symmetric,1.0,1.0,1.0,,,3,,1,0
141210_1516,5,2,1,0.8368786,0.14675814,-3,-10,-30,NSQ,NSQ,1,-1,0,0.0,-2.0,-1.0,-1.0,-1.0,-1.0,-1.0,-1.0,-1,-1.0,-1.0,,0,28,,,36.0,0.0,1,-10,-10,0,0.0,,22,,2,1,2,0.16710742,1,,1,-3,-1,1,2,4,6,4,6,4,6,,,26,male,,4,Die Linke,,2,6,,,,,,,,,,,,,,,1,symmetric,9,21,NSQ,RAND,102,-3,0,0,0,0,0.5,0.0,NSQ vs. RAND,negative,,,1,1,1_1,0,1,0,1,Value -3,1,,,1.0,0.0,symmetric,0.0,0.0,0.0,,,3,,0,1
141210_1516,5,4,1,0.326125,0.28328201,-1,-10,-30,NSQ,NSQ,1,-1,0,0.0,-2.0,-1.0,-1.0,-1.0,-1.0,-1.0,-1.0,-1,-1.0,-1.0,,0,33,,,36.0,0.0,0,-10,-10,0,0.0,,24,,2,1,2,0.039974216,2,,1,-3,-1,1,2,4,6,4,6,2,6,,,25,female,,8,Nichtwähler,,3,8,,,,,,,,,,,,,,,1,symmetric,9,21,NSQ,RAND,104,-3,0,0,0,0,0.5,0.0,NSQ vs. RAND,negative,,,1,1,1_1,0,1,0,1,Value -1,1,,,1.0,0.0,symmetric,0.0,0.0,0.0,,,1,,0,1
141210_1516,5,6,1,0.16379909,0.56396729,1,-10,-30,NSQ,NSQ,1,-1,0,0.0,-2.0,-1.0,-1.0,-1.0,-1.0,-1.0,-1.0,-1,-1.0,-1.0,,1,30,,,39.0,0.0,0,-10,-10,0,0.0,,21,,2,1,2,0.20829965,3,,1,-3,-1,1,2,4,6,4,4,2,4,,,21,male,,2,Die Linke,,3,6,,,,,,,,,,,,,,,1,symmetric,9,21,NSQ,RAND,106,-3,0,0,0,0,0.5,0.0,NSQ vs. RAND,positive,,,1,1,1_1,0,1,1,0,Value 1,1,,,1.0,0.0,symmetric,0.0,0.0,0.0,,,1,,0,0
141210_1516,5,3,2,0.31605712,0.06381873,-3,-10,-30,NSQ,RAND,2,-1,0,0.0,-2.0,-1.0,-1.0,-1.0,-1.0,-1.0,-1.0,-1,-1.0,-1.0,,0,19,,,35.0,0.0,1,-10,-10,0,0.0,,21,,2,1,2,0.51968151,2,,1,-3,3,-1,3,5,7,4,7,5,7,,,19,male,,6,FDP,,3,4,,,,,,,,,,,,,,,1,symmetric,9,21,NSQ,RAND,103,-1,0,0,0,0,0.5,0.5,NSQ vs. RAND,negative,,,1,1,1_1,0,1,0,1,Value -3,0,,,0.0,1.0,symmetric,0.0,0.0,0.0,,,3,,0,0
141210_1516,5,5,2,0.32083169,0.8951211,3,-10,-30,NSQ,NSQ,1,-1,0,0.0,-2.0,-1.0,-1.0,-1.0,-1.0,-1.0,-1.0,-1,-1.0,-1.0,,1,31,,,36.0,0.0,1,-10,-10,0,0.0,,21,,2,1,2,0.32163519,1,,1,-3,3,-1,3,5,7,4,7,3,7,,,26,male,,2,Sonstige,,5,8,,,,,,,,,,,,,,,1,symmetric,9,21,NSQ,RAND,105,-1,0,0,0,0,0.5,0.0,NSQ vs. RAND,positive,,,1,1,1_1,0,1,1,0,Value 3,1,,,1.0,0.0,symmetric,0.0,0.0,0.0,,,3,,0,0
141210_1516,5,7,2,0.28722173,0.3003329,-1,-10,-30,NSQ,NSQ,1,-1,0,0.0,-2.0,-1.0,-1.0,-1.0,-1.0,-1.0,-1.0,-1,-1.0,-1.0,,0,31,,,34.0,0.0,0,-10,-10,0,0.0,,24,,2,1,2,0.7641117,3,,1,-3,3,-1,3,5,7,4,5,3,5,,,23,female,,4,SPD,,8,7,,,,,,,,,,,,,,,1,symmetric,9,21,NSQ,RAND,107,-1,0,0,0,0,0.5,0.0,NSQ vs. RAND,negative,,,1,1,1_1,0,1,0,1,Value -1,1,,,1.0,0.0,symmetric,0.0,0.0,0.0,,,1,,0,1
141210_1516,5,1,3,0.16786626,0.94770414,3,-10,-30,RAND,RAND,2,-1,0,0.0,-2.0,-1.0,-1.0,-1.0,-1.0,-1.0,-1.0,-1,-1.0,-1.0,,1,33,,,0.0,33.0,1,-10,-10,1,3.0,,3,,2,1,2,0.8164432,3,,1,3,3,3,1,8,9,4,9,8,9,,,64,male,,3,Die Linke,,5,5,,,,,,,,,,,,,,,1,symmetric,9,21,NSQ,RAND,101,9,1,1,1,0,0.5,0.5,NSQ vs. RAND,positive,,,0,1,1_1,0,1,1,0,Value 3,0,,,0.0,1.0,symmetric,0.0,0.0,0.0,,,3,,0,1
141210_1516,5,8,3,0.17072332,0.89214587,3,-10,-30,RAND,RAND,2,-1,0,0.0,-2.0,-1.0,-1.0,-1.0,-1.0,-1.0,-1.0,-1,-1.0,-1.0,,1,33,,,0.0,34.0,0,-10,-10,0,3.0,,23,,2,1,2,0.91810077,2,,1,3,3,3,1,8,9,4,9,1,9,,,23,female,,4,CDU/CSU,,8,4,,,,,,,,,,,,,,,1,symmetric,9,21,NSQ,RAND,108,9,1,1,1,0,0.5,0.5,NSQ vs. RAND,positive,,,0,1,1_1,0,1,1,0,Value 3,0,,,0.0,1.0,symmetric,0.0,0.0,0.0,,,3,,0,1
141210_1516,5,9,3,0.761581,0.99800527,3,-10,-30,RAND,RAND,2,-1,0,0.0,-2.0,-1.0,-1.0,-1.0,-1.0,-1.0,-1.0,-1,-1.0,-1.0,,1,31,,,0.0,35.0,1,-10,-10,1,3.0,,22,,2,1,2,0.96113867,1,,1,3,3,3,1,8,9,4,8,1,8,,,26,male,,10,AfD,,8,8,,,,,,,,,,,,,,,1,symmetric,9,21,NSQ,RAND,109,9,1,1,1,0,0.5,0.5,NSQ vs. RAND,positive,,,0,1,1_1,0,1,1,0,Value 3,0,,,0.0,1.0,symmetric,0.0,0.0,0.0,,,3,,0,1
141210_1516,5,12,4,0.63287646,0.46483719,-1,-10,-30,RAND,RAND,2,-1,0,0.0,-2.0,-1.0,-1.0,-1.0,-1.0,-1.0,-1.0,-1,-1.0,-1.0,,0,37,,,0.0,37.0,0,-10,-10,0,0.0,,24,,2,2,2,10.117442,1,,1,-1,3,-3,12,16,17,4,17,16,17,,,22,male,,6,SPD,,7,7,,,,,,,,,,,,,,,1,symmetric,9,21,NSQ,RAND,112,-1,0,0,0,0,0.5,0.5,NSQ vs. RAND,negative,,,1,1,1_2,0,1,0,1,Value -1,0,,,0.0,1.0,symmetric,0.0,0.0,0.0,,,1,,0,0
141210_1516,5,16,4,0.23262896,0.85706848,3,-10,-30,RAND,NSQ,1,-1,0,0.0,-2.0,-1.0,-1.0,-1.0,-1.0,-1.0,-1.0,-1,-1.0,-1.0,,1,30,,,0.0,34.0,0,-10,-10,0,0.0,,15,,2,2,2,10.045585,3,,1,-1,3,-3,12,16,17,4,17,12,17,,,23,male,,6,FDP,,7,6,,,,,,,,,,,,,,,1,symmetric,9,21,NSQ,RAND,116,-1,0,0,0,0,0.5,0.0,NSQ vs. RAND,positive,,,1,1,1_2,0,1,1,0,Value 3,1,,,1.0,0.0,symmetric,0.0,0.0,0.0,,,3,,0,0
141210_1516,5,17,4,0.56215549,0.18341267,-3,-10,-30,RAND,RAND,2,-1,0,0.0,-2.0,-1.0,-1.0,-1.0,-1.0,-1.0,-1.0,-1,-1.0,-1.0,,0,30,,,0.0,38.0,1,-10,-10,1,0.0,,24,,2,2,2,10.178802,2,,1,-1,3,-3,12,16,17,4,16,12,16,,,18,male,,8,CDU/CSU,,3,3,,,,,,,,,,,,,,,1,symmetric,9,21,NSQ,RAND,117,-1,0,0,0,0,0.5,0.5,NSQ vs. RAND,negative,,,1,1,1_2,0,1,0,1,Value -3,0,,,0.0,1.0,symmetric,0.0,0.0,0.0,,,3,,0,0
141210_1516,5,11,5,0.74993432,0.41852826,-1,-10,-30,RAND,RAND,2,-1,0,0.0,-2.0,-1.0,-1.0,-1.0,-1.0,-1.0,-1.0,-1,-1.0,-1.0,,0,33,,,0.0,38.0,0,-10,-10,0,0.0,,23,,2,2,2,10.335763,1,,1,-1,-1,-3,11,18,19,4,19,18,19,,,19,female,,5,Bündnis 90 / Die Grünen,,4,4,,,,,,,,,,,,,,,1,symmetric,9,21,NSQ,RAND,111,-5,0,0,0,0,0.5,0.5,NSQ vs. RAND,negative,,,1,1,1_2,0,1,0,1,Value -1,0,,,0.0,1.0,symmetric,0.0,0.0,0.0,,,1,,0,0
141210_1516,5,18,5,0.58237427,0.29589877,-1,-10,-30,RAND,NSQ,1,-1,0,0.0,-2.0,-1.0,-1.0,-1.0,-1.0,-1.0,-1.0,-1,-1.0,-1.0,,0,31,,,0.0,34.0,1,-10,-10,1,0.0,,23,,2,2,2,10.328316,2,,1,-1,-1,-3,11,18,19,4,19,11,19,,,37,female,,3,Bündnis 90 / Die Grünen,,4,6,,,,,,,,,,,,,,,1,symmetric,9,21,NSQ,RAND,118,-5,0,0,0,0,0.5,0.0,NSQ vs. RAND,negative,,,1,1,1_2,0,1,0,1,Value -1,1,,,1.0,0.0,symmetric,0.0,0.0,0.0,,,1,,0,1
141210_1516,5,19,5,0.34687945,0.1038026,-3,-10,-30,RAND,NSQ,1,-1,0,0.0,-2.0,-1.0,-1.0,-1.0,-1.0,-1.0,-1.0,-1,-1.0,-1.0,,0,33,,,0.0,29.0,0,-10,-10,0,0.0,,23,,2,2,2,10.20459,3,,1,-1,-1,-3,11,18,19,4,18,11,18,,,22,male,,9,CDU/CSU,,3,1,,,,,,,,,,,,,,,1,symmetric,9,21,NSQ,RAND,119,-5,0,0,0,0,0.5,0.0,NSQ vs. RAND,negative,,,1,1,1_2,0,1,0,1,Value -3,1,,,1.0,0.0,symmetric,0.0,0.0,0.0,,,3,,0,1
141210_1516,5,10,6,0.18723299,0.0030072853,-3,-10,-30,RAND,NSQ,1,-1,0,0.0,-2.0,-1.0,-1.0,-1.0,-1.0,-1.0,-1.0,-1,-1.0,-1.0,,0,18,,,0.0,38.0,0,-10,-10,0,0.0,,22,,2,2,2,10.728892,3,,1,-3,1,-3,10,14,21,4,21,14,21,,,19,female,,6,CDU/CSU,,6,4,,,,,,,,,,,,,,,1,symmetric,9,21,NSQ,RAND,110,-5,0,0,0,0,0.5,0.0,NSQ vs. RAND,negative,,,1,1,1_2,0,1,0,1,Value -3,1,,,1.0,0.0,symmetric,0.0,0.0,0.0,,,3,,0,1
141210_1516,5,14,6,0.93941224,0.59842527,1,-10,-30,RAND,RAND,2,-1,0,0.0,-2.0,-1.0,-1.0,-1.0,-1.0,-1.0,-1.0,-1,-1.0,-1.0,,1,35,,,0.0,37.0,0,-10,-10,0,0.0,,24,,2,2,2,10.474792,1,,1,-3,1,-3,10,14,21,4,21,10,21,,,21,female,,3,Nichtwähler,,2,7,,,,,,,,,,,,,,,1,symmetric,9,21,NSQ,RAND,114,-5,0,0,0,0,0.5,0.5,NSQ vs. RAND,positive,,,0,1,1_2,0,1,1,0,Value 1,0,,,0.0,1.0,symmetric,0.0,0.0,0.0,,,1,,0,1
141210_1516,5,21,6,0.51254845,0.0084594991,-3,-10,-30,RAND,RAND,2,-1,0,0.0,-2.0,-1.0,-1.0,-1.0,-1.0,-1.0,-1.0,-1,-1.0,-1.0,,0,29,,,0.0,34.0,0,-10,-10,0,0.0,,23,,2,2,2,10.824728,2,,1,-3,1,-3,10,14,21,4,14,10,14,,,24,female,,6,Nichtwähler,,7,5,,,,,,,,,,,,,,,1,symmetric,9,21,NSQ,RAND,121,-5,0,0,0,0,0.5,0.5,NSQ vs. RAND,negative,,,0,1,1_2,0,1,0,1,Value -3,0,,,0.0,1.0,symmetric,0.0,0.0,0.0,,,3,,0,0
141210_1516,5,13,7,0.68655074,0.70187616,1,-10,-30,RAND,NSQ,1,-1,0,0.0,-2.0,-1.0,-1.0,-1.0,-1.0,-1.0,-1.0,-1,-1.0,-1.0,,1,33,,,0.0,32.0,1,-10,-10,1,1.0,,22,,2,2,2,10.932347,2,,1,1,1,1,13,15,20,4,20,15,20,,,19,male,,9,CDU/CSU,,6,4,,,,,,,,,,,,,,,1,symmetric,9,21,NSQ,RAND,113,3,1,1,1,0,0.5,0.0,NSQ vs. RAND,positive,,,1,1,1_2,0,1,1,0,Value 1,1,,,1.0,0.0,symmetric,0.0,0.0,0.0,,,1,,0,0
141210_1516,5,15,7,0.97197109,0.70884645,1,-10,-30,RAND,RAND,2,-1,0,0.0,-2.0,-1.0,-1.0,-1.0,-1.0,-1.0,-1.0,-1,-1.0,-1.0,,1,34,,,0.0,37.0,1,-10,-10,1,1.0,,18,,2,2,2,10.892138,1,,1,1,1,1,13,15,20,4,20,13,20,,,19,male,,5,AfD,,6,6,,,,,,,,,,,,,,,1,symmetric,9,21,NSQ,RAND,115,3,1,1,1,0,0.5,0.5,NSQ vs. RAND,positive,,,1,1,1_2,0,1,1,0,Value 1,0,,,0.0,1.0,symmetric,0.0,0.0,0.0,,,1,,0,1
141210_1516,5,20,7,0.54094201,0.62557745,1,-10,-30,RAND,NSQ,1,-1,0,0.0,-2.0,-1.0,-1.0,-1.0,-1.0,-1.0,-1.0,-1,-1.0,-1.0,,1,31,,,0.0,29.0,1,-10,-10,1,1.0,,23,,2,2,2,10.84798,3,,1,1,1,1,13,15,20,4,15,13,15,,,22,male,,5,Bündnis 90 / Die Grünen,,6,4,,,,,,,,,,,,,,,1,symmetric,9,21,NSQ,RAND,120,3,1,1,1,0,0.5,0.0,NSQ vs. RAND,positive,,,1,1,1_2,0,1,1,0,Value 1,1,,,1.0,0.0,symmetric,0.0,0.0,0.0,,,1,,0,0
141210_1516,6,1,1,0.84854591,0.4080582,-1,-10,-30,SM,SM,1,Yes,2,0.0,-2.0,-1.0,-1.0,-1.0,-1.0,-1.0,-1.0,-1,-1.0,-1.0,,0,34,,34.0,,,1,-10,-10,1,-1.0,,21,,2,1,2,0.20182084,1,,1,-1,3,-3,1,2,5,4,5,2,5,,,64,male,,3,Die Linke,,5,5,,,,,,,,,,,,,,,1,symmetric,9,21,SM,NSQ,101,-1,0,0,0,0,0.5,0.0,SM vs. NSQ,negative,,,0,1,1_1,0,1,0,1,Value -1,1,,1.0,0.0,,symmetric,1.0,1.0,1.0,,,1,,0,0
141210_1516,6,2,1,0.11528043,0.82763958,3,-10,-30,SM,SM,1,Yes,2,0.0,-2.0,-1.0,-1.0,-1.0,-1.0,-1.0,-1.0,-1,-1.0,-1.0,,1,35,,36.0,,,0,-10,-10,1,3.0,,21,,2,1,2,0.082586236,2,,1,-1,3,-3,1,2,5,4,5,1,5,,,26,male,,4,Die Linke,,2,6,,,,,,,,,,,,,,,1,symmetric,9,21,SM,NSQ,102,-1,0,0,0,0,0.5,0.0,SM vs. NSQ,positive,,,1,1,1_1,0,1,1,0,Value 3,1,,1.0,0.0,,symmetric,1.0,1.0,1.0,,,3,,0,1
141210_1516,6,5,1,0.10509574,0.12947281,-3,-10,-30,SM,NSQ,2,No,0,0.0,-2.0,-1.0,-1.0,-1.0,-1.0,-1.0,-1.0,-1,-1.0,-1.0,,0,31,,23.0,,,0,-10,-10,0,-3.0,,23,,2,1,2,0.17347313,3,,1,-1,3,-3,1,2,5,4,2,1,2,,,26,male,,2,Sonstige,,5,8,,,,,,,,,,,,,,,1,symmetric,9,21,SM,NSQ,105,-1,0,0,0,0,0.5,0.0,SM vs. NSQ,negative,,,1,1,1_1,0,1,0,1,Value -3,0,,0.0,1.0,,symmetric,0.0,0.0,0.0,,,3,,0,1
141210_1516,6,7,2,0.33952826,0.22077473,-3,-10,-30,SM,SM,1,No,0,0.0,-2.0,-1.0,-1.0,-1.0,-1.0,-1.0,-1.0,-1,-1.0,-1.0,,0,34,,28.0,,,1,-10,-10,0,0.0,,23,,2,1,2,0.29585901,2,,1,-3,-3,-3,7,8,9,4,9,8,9,,,23,female,,4,SPD,,8,7,,,,,,,,,,,,,,,1,symmetric,9,21,SM,NSQ,107,-9,0,0,0,0,0.5,0.0,SM vs. NSQ,negative,,,1,1,1_1,0,1,0,1,Value -3,1,,1.0,0.0,,symmetric,1.0,1.0,1.0,,,3,,0,0
141210_1516,6,8,2,0.57454437,0.10816021,-3,-10,-30,SM,SM,1,No,0,0.0,-2.0,-1.0,-1.0,-1.0,-1.0,-1.0,-1.0,-1,-1.0,-1.0,,0,34,,36.0,,,1,-10,-10,0,0.0,,23,,2,1,2,0.34421942,1,,1,-3,-3,-3,7,8,9,4,9,7,9,,,23,female,,4,CDU/CSU,,8,4,,,,,,,,,,,,,,,1,symmetric,9,21,SM,NSQ,108,-9,0,0,0,0,0.5,0.0,SM vs. NSQ,negative,,,0,1,1_1,0,1,0,1,Value -3,1,,1.0,0.0,,symmetric,1.0,1.0,1.0,,,3,,0,0
141210_1516,6,9,2,0.036235582,0.026819324,-3,-10,-30,SM,SM,1,No,0,0.0,-2.0,-1.0,-1.0,-1.0,-1.0,-1.0,-1.0,-1,-1.0,-1.0,,0,33,,32.0,,,0,-10,-10,0,0.0,,15,,2,1,2,0.37950015,3,,1,-3,-3,-3,7,8,9,4,8,7,8,,,26,male,,10,AfD,,8,8,,,,,,,,,,,,,,,1,symmetric,9,21,SM,NSQ,109,-9,0,0,0,0,0.5,0.0,SM vs. NSQ,negative,,,0,1,1_1,0,1,0,1,Value -3,1,,1.0,0.0,,symmetric,1.0,1.0,1.0,,,3,,0,0
141210_1516,6,3,3,0.15610482,0.24534184,-3,-10,-30,SM,SM,1,No,0,0.0,-2.0,-1.0,-1.0,-1.0,-1.0,-1.0,-1.0,-1,-1.0,-1.0,,0,27,,37.0,,,0,-10,-10,0,0.0,,19,,2,1,2,0.75237286,3,,1,-3,1,-1,3,4,6,4,6,4,6,,,19,male,,6,FDP,,3,4,,,,,,,,,,,,,,,1,symmetric,9,21,SM,NSQ,103,-3,0,0,0,0,0.5,0.0,SM vs. NSQ,negative,,,1,1,1_1,0,1,0,1,Value -3,1,,1.0,0.0,,symmetric,1.0,1.0,1.0,,,3,,0,0
141210_1516,6,4,3,0.84459543,0.52465409,1,-10,-30,SM,SM,1,Yes,1,0.0,-2.0,-1.0,-1.0,-1.0,-1.0,-1.0,-1.0,-1,-1.0,-1.0,,1,33,,38.0,,,0,-10,-10,0,0.0,,23,,2,1,2,0.81579727,1,,1,-3,1,-1,3,4,6,4,6,3,6,,,25,female,,8,Nichtwähler,,3,8,,,,,,,,,,,,,,,1,symmetric,9,21,SM,NSQ,104,-3,0,0,0,0,0.5,0.0,SM vs. NSQ,positive,,,1,1,1_1,0,1,1,0,Value 1,1,,1.0,0.0,,symmetric,1.0,1.0,1.0,,,1,,0,1
141210_1516,6,6,3,0.45407119,0.46019277,-1,-10,-30,SM,SM,1,No,0,0.0,-2.0,-1.0,-1.0,-1.0,-1.0,-1.0,-1.0,-1,-1.0,-1.0,,0,36,,36.0,,,0,-10,-10,0,0.0,,20,,2,1,2,0.62015039,2,,1,-3,1,-1,3,4,6,4,4,3,4,,,21,male,,2,Die Linke,,3,6,,,,,,,,,,,,,,,1,symmetric,9,21,SM,NSQ,106,-3,0,0,0,0,0.5,0.0,SM vs. NSQ,negative,,,1,1,1_1,0,1,0,1,Value -1,1,,1.0,0.0,,symmetric,1.0,1.0,1.0,,,1,,0,0
141210_1516,6,16,4,0.86732918,0.64754236,1,-10,-30,SM,SM,1,Yes,3,0.0,-2.0,-1.0,-1.0,-1.0,-1.0,-1.0,-1.0,-1,-1.0,-1.0,,1,30,,11.0,,,0,-10,-10,1,1.0,,-5,,2,2,2,10.154683,1,,1,1,1,3,16,19,21,4,21,19,21,,,23,male,,6,FDP,,7,6,,,,,,,,,,,,,,,1,symmetric,9,21,SM,NSQ,116,5,1,1,1,0,0.5,1.0,SM vs. NSQ,positive,,,1,1,1_2,0,1,1,0,Value 1,1,,1.0,0.0,,symmetric,1.0,1.0,1.0,,,1,,0,1
141210_1516,6,19,4,0.049351703,0.53754705,1,-10,-30,SM,SM,1,Yes,3,0.0,-2.0,-1.0,-1.0,-1.0,-1.0,-1.0,-1.0,-1,-1.0,-1.0,,1,35,,38.0,,,1,-10,-10,1,1.0,,20,,2,2,2,10.170951,3,,1,1,1,3,16,19,21,4,21,16,21,,,22,male,,9,CDU/CSU,,3,1,,,,,,,,,,,,,,,1,symmetric,9,21,SM,NSQ,119,5,1,1,1,0,0.5,1.0,SM vs. NSQ,positive,,,1,1,1_2,0,1,1,0,Value 1,1,,1.0,0.0,,symmetric,1.0,1.0,1.0,,,1,,0,1
141210_1516,6,21,4,0.50243747,0.81525773,3,-10,-30,SM,SM,1,Yes,3,0.0,-2.0,-1.0,-1.0,-1.0,-1.0,-1.0,-1.0,-1,-1.0,-1.0,,1,28,,33.0,,,0,-10,-10,1,3.0,,23,,2,2,2,10.002885,2,,1,1,1,3,16,19,21,4,19,16,19,,,24,female,,6,Nichtwähler,,7,5,,,,,,,,,,,,,,,1,symmetric,9,21,SM,NSQ,121,5,1,1,1,0,0.5,1.0,SM vs. NSQ,positive,,,0,1,1_2,0,1,1,0,Value 3,1,,1.0,0.0,,symmetric,1.0,1.0,1.0,,,3,,0,1
141210_1516,6,11,5,0.36674094,0.91570449,3,-10,-30,SM,SM,1,Yes,3,0.0,-2.0,-1.0,-1.0,-1.0,-1.0,-1.0,-1.0,-1,-1.0,-1.0,,1,36,,38.0,,,0,-10,-10,1,3.0,,20,,2,2,2,10.192529,2,,1,3,3,3,11,13,18,4,18,13,18,,,19,female,,5,Bündnis 90 / Die Grünen,,4,4,,,,,,,,,,,,,,,1,symmetric,9,21,SM,NSQ,111,9,1,1,1,0,0.5,1.0,SM vs. NSQ,positive,,,1,1,1_2,0,1,1,0,Value 3,1,,1.0,0.0,,symmetric,1.0,1.0,1.0,,,3,,0,1
141210_1516,6,13,5,0.91291398,0.97857517,3,-10,-30,SM,SM,1,Yes,3,0.0,-2.0,-1.0,-1.0,-1.0,-1.0,-1.0,-1.0,-1,-1.0,-1.0,,1,31,,36.0,,,1,-10,-10,1,3.0,,23,,2,2,2,10.312809,1,,1,3,3,3,11,13,18,4,18,11,18,,,19,male,,9,CDU/CSU,,6,4,,,,,,,,,,,,,,,1,symmetric,9,21,SM,NSQ,113,9,1,1,1,0,0.5,1.0,SM vs. NSQ,positive,,,1,1,1_2,0,1,1,0,Value 3,1,,1.0,0.0,,symmetric,1.0,1.0,1.0,,,3,,0,1
141210_1516,6,18,5,0.23570731,0.83883637,3,-10,-30,SM,SM,1,Yes,3,0.0,-2.0,-1.0,-1.0,-1.0,-1.0,-1.0,-1.0,-1,-1.0,-1.0,,1,35,,37.0,,,1,-10,-10,1,3.0,,20,,2,2,2,10.277574,3,,1,3,3,3,11,13,18,4,13,11,13,,,37,female,,3,Bündnis 90 / Die Grünen,,4,6,,,,,,,,,,,,,,,1,symmetric,9,21,SM,NSQ,118,9,1,1,1,0,0.5,1.0,SM vs. NSQ,positive,,,1,1,1_2,0,1,1,0,Value 3,1,,1.0,0.0,,symmetric,1.0,1.0,1.0,,,3,,0,1
141210_1516,6,12,6,0.56299084,0.58897835,1,-10,-30,SM,SM,1,Yes,2,0.0,-2.0,-1.0,-1.0,-1.0,-1.0,-1.0,-1.0,-1,-1.0,-1.0,,1,35,,38.0,,,0,-10,-10,1,1.0,,22,,2,2,2,10.48964,2,,1,1,1,-3,12,15,17,4,17,15,17,,,22,male,,6,SPD,,7,7,,,,,,,,,,,,,,,1,symmetric,9,21,SM,NSQ,112,-1,0,0,1,0,0.5,1.0,SM vs. NSQ,positive,,,1,1,1_2,0,1,1,0,Value 1,1,,1.0,0.0,,symmetric,1.0,1.0,1.0,,,1,,0,1
141210_1516,6,15,6,0.011444014,0.55361867,1,-10,-30,SM,SM,1,Yes,2,0.0,-2.0,-1.0,-1.0,-1.0,-1.0,-1.0,-1.0,-1,-1.0,-1.0,,1,35,,35.0,,,1,-10,-10,1,1.0,,22,,2,2,2,10.373107,3,,1,1,1,-3,12,15,17,4,17,12,17,,,19,male,,5,AfD,,6,6,,,,,,,,,,,,,,,1,symmetric,9,21,SM,NSQ,115,-1,0,0,1,0,0.5,1.0,SM vs. NSQ,positive,,,1,1,1_2,0,1,1,0,Value 1,1,,1.0,0.0,,symmetric,1.0,1.0,1.0,,,1,,0,1
141210_1516,6,17,6,0.7799378,0.0045907125,-3,-10,-30,SM,SM,1,No,0,0.0,-2.0,-1.0,-1.0,-1.0,-1.0,-1.0,-1.0,-1,-1.0,-1.0,,0,36,,36.0,,,1,-10,-10,0,-3.0,,23,,2,2,2,10.466688,1,,1,1,1,-3,12,15,17,4,15,12,15,,,18,male,,8,CDU/CSU,,3,3,,,,,,,,,,,,,,,1,symmetric,9,21,SM,NSQ,117,-1,0,0,1,0,0.5,1.0,SM vs. NSQ,negative,,,1,1,1_2,0,1,0,1,Value -3,1,,1.0,0.0,,symmetric,1.0,1.0,1.0,,,3,,0,0
141210_1516,6,10,7,0.41479889,0.86173201,3,-10,-30,SM,SM,1,Yes,3,0.0,-2.0,-1.0,-1.0,-1.0,-1.0,-1.0,-1.0,-1,-1.0,-1.0,,1,31,,36.0,,,1,-10,-10,1,3.0,,17,,2,2,2,10.870157,2,,1,3,-3,3,10,14,20,4,20,14,20,,,19,female,,6,CDU/CSU,,6,4,,,,,,,,,,,,,,,1,symmetric,9,21,SM,NSQ,110,3,1,1,1,0,0.5,1.0,SM vs. NSQ,positive,,,1,1,1_2,0,1,1,0,Value 3,1,,1.0,0.0,,symmetric,1.0,1.0,1.0,,,3,,0,1
141210_1516,6,14,7,0.24588303,0.13027839,-3,-10,-30,SM,SM,1,Yes,3,0.0,-2.0,-1.0,-1.0,-1.0,-1.0,-1.0,-1.0,-1,-1.0,-1.0,,0,33,,34.0,,,1,-10,-10,1,-3.0,,12,,2,2,2,10.795697,3,,1,3,-3,3,10,14,20,4,20,10,20,,,21,female,,3,Nichtwähler,,2,7,,,,,,,,,,,,,,,1,symmetric,9,21,SM,NSQ,114,3,1,1,1,0,0.5,1.0,SM vs. NSQ,negative,,,0,1,1_2,0,1,0,1,Value -3,1,,1.0,0.0,,symmetric,1.0,1.0,1.0,,,3,,0,0
141210_1516,6,20,7,0.53291804,0.90515202,3,-10,-30,SM,SM,1,Yes,3,0.0,-2.0,-1.0,-1.0,-1.0,-1.0,-1.0,-1.0,-1,-1.0,-1.0,,1,30,,33.0,,,1,-10,-10,1,3.0,,22,,2,2,2,10.653654,1,,1,3,-3,3,10,14,20,4,14,10,14,,,22,male,,5,Bündnis 90 / Die Grünen,,6,4,,,,,,,,,,,,,,,1,symmetric,9,21,SM,NSQ,120,3,1,1,1,0,0.5,1.0,SM vs. NSQ,positive,,,1,1,1_2,0,1,1,0,Value 3,1,,1.0,0.0,,symmetric,1.0,1.0,1.0,,,3,,0,1
141210_1516,7,3,1,0.44417888,0.85363328,3,-10,-30,RAND,SM,2,-1,0,0.0,-2.0,-1.0,-1.0,-1.0,-1.0,-1.0,-1.0,-1,-1.0,-1.0,,1,29,,0.0,,36.0,0,-10,-10,0,3.0,,24,,2,1,2,0.010182519,3,,1,3,1,1,3,5,7,4,7,5,7,,,19,male,,6,FDP,,3,4,,,,,,,,,,,,,,,1,symmetric,9,21,RAND,SM,103,5,1,1,1,0,0.5,1.0,SM vs. RAND,positive,,,1,2,1_1,0,1,1,0,Value 3,1,,1.0,,0.0,symmetric,1.0,1.0,1.0,,,3,,1,1
141210_1516,7,5,1,0.76533663,0.69036692,1,-10,-30,RAND,RAND,1,-1,0,0.0,-2.0,-1.0,-1.0,-1.0,-1.0,-1.0,-1.0,-1,-1.0,-1.0,,1,34,,0.0,,36.0,1,-10,-10,1,1.0,,23,,2,1,2,0.24916792,1,,1,3,1,1,3,5,7,4,7,3,7,,,26,male,,2,Sonstige,,5,8,,,,,,,,,,,,,,,1,symmetric,9,21,RAND,SM,105,5,1,1,1,0,0.5,0.5,SM vs. RAND,positive,,,1,2,1_1,0,1,1,0,Value 1,0,,0.0,,1.0,symmetric,0.0,0.0,0.0,,,1,,1,0
141210_1516,7,7,1,0.65618157,0.72732085,1,-10,-30,RAND,SM,2,-1,0,0.0,-2.0,-1.0,-1.0,-1.0,-1.0,-1.0,-1.0,-1,-1.0,-1.0,,1,35,,0.0,,36.0,1,-10,-10,1,1.0,,24,,2,1,2,0.14646122,2,,1,3,1,1,3,5,7,4,5,3,5,,,23,female,,4,SPD,,8,7,,,,,,,,,,,,,,,1,symmetric,9,21,RAND,SM,107,5,1,1,1,0,0.5,1.0,SM vs. RAND,positive,,,1,2,1_1,0,1,1,0,Value 1,1,,1.0,,0.0,symmetric,1.0,1.0,1.0,,,1,,1,1
141210_1516,7,1,2,0.99708951,0.92846769,3,-10,-30,RAND,RAND,1,-1,0,0.0,-2.0,-1.0,-1.0,-1.0,-1.0,-1.0,-1.0,-1,-1.0,-1.0,,1,32,,0.0,,39.0,1,-10,-10,1,3.0,,23,,2,1,2,0.67740887,1,,1,3,-3,1,1,6,8,4,8,6,8,,,64,male,,3,Die Linke,,5,5,,,,,,,,,,,,,,,1,symmetric,9,21,RAND,SM,101,1,1,1,1,0,0.5,0.5,SM vs. RAND,positive,,,0,2,1_1,0,1,1,0,Value 3,0,,0.0,,1.0,symmetric,0.0,0.0,0.0,,,3,,1,0
141210_1516,7,6,2,0.31456026,0.1873486,-3,-10,-30,RAND,SM,2,-1,0,0.0,-2.0,-1.0,-1.0,-1.0,-1.0,-1.0,-1.0,-1,-1.0,-1.0,,0,36,,0.0,,38.0,0,-10,-10,0,-3.0,,25,,2,1,2,0.55158865,2,,1,3,-3,1,1,6,8,4,8,1,8,,,21,male,,2,Die Linke,,3,6,,,,,,,,,,,,,,,1,symmetric,9,21,RAND,SM,106,1,1,1,1,0,0.5,1.0,SM vs. RAND,negative,,,1,2,1_1,0,1,0,1,Value -3,1,,1.0,,0.0,symmetric,1.0,1.0,1.0,,,3,,1,1
141210_1516,7,8,2,0.083579898,0.57360816,1,-10,-30,RAND,SM,2,-1,0,0.0,-2.0,-1.0,-1.0,-1.0,-1.0,-1.0,-1.0,-1,-1.0,-1.0,,1,29,,0.0,,36.0,1,-10,-10,1,1.0,,24,,2,1,2,0.49926588,3,,1,3,-3,1,1,6,8,4,6,1,6,,,23,female,,4,CDU/CSU,,8,4,,,,,,,,,,,,,,,1,symmetric,9,21,RAND,SM,108,1,1,1,1,0,0.5,1.0,SM vs. RAND,positive,,,0,2,1_1,0,1,1,0,Value 1,1,,1.0,,0.0,symmetric,1.0,1.0,1.0,,,1,,1,1
141210_1516,7,2,3,0.9937554,0.45746851,-1,-10,-30,SM,SM,2,No,0,0.0,-2.0,-1.0,-1.0,-1.0,-1.0,-1.0,-1.0,-1,-1.0,-1.0,,0,29,,35.0,,0.0,1,-10,-10,0,0.0,,20,,2,1,2,0.89612764,1,,1,-1,-1,3,2,4,9,4,9,4,9,,,26,male,,4,Die Linke,,2,6,,,,,,,,,,,,,,,1,symmetric,9,21,RAND,SM,102,1,1,1,0,0,0.5,0.0,SM vs. RAND,negative,,,1,2,1_1,0,1,0,1,Value -1,1,,1.0,,0.0,symmetric,1.0,1.0,1.0,,,1,,1,1
141210_1516,7,4,3,0.20765233,0.31281534,-1,-10,-30,SM,RAND,1,No,0,0.0,-2.0,-1.0,-1.0,-1.0,-1.0,-1.0,-1.0,-1,-1.0,-1.0,,0,32,,36.0,,0.0,0,-10,-10,0,0.0,,24,,2,1,2,0.79215419,3,,1,-1,-1,3,2,4,9,4,9,2,9,,,25,female,,8,Nichtwähler,,3,8,,,,,,,,,,,,,,,1,symmetric,9,21,RAND,SM,104,1,1,1,0,0,0.5,0.5,SM vs. RAND,negative,,,1,2,1_1,0,1,0,1,Value -1,0,,0.0,,1.0,symmetric,0.0,0.0,0.0,,,1,,1,0
141210_1516,7,9,3,0.75691158,0.7678749,3,-10,-30,SM,RAND,1,Yes,1,0.0,-2.0,-1.0,-1.0,-1.0,-1.0,-1.0,-1.0,-1,-1.0,-1.0,,1,26,,34.0,,0.0,0,-10,-10,0,0.0,,13,,2,1,2,0.98766804,2,,1,-1,-1,3,2,4,9,4,4,2,4,,,26,male,,10,AfD,,8,8,,,,,,,,,,,,,,,1,symmetric,9,21,RAND,SM,109,1,1,1,0,0,0.5,0.5,SM vs. RAND,positive,,,0,2,1_1,0,1,1,0,Value 3,0,,0.0,,1.0,symmetric,0.0,0.0,0.0,,,3,,1,0
141210_1516,7,13,4,0.77832592,0.23803319,-3,-10,-30,SM,SM,2,No,0,0.0,-2.0,-1.0,-1.0,-1.0,-1.0,-1.0,-1.0,-1,-1.0,-1.0,,0,35,,38.0,,0.0,0,-10,-10,0,0.0,,23,,2,2,2,10.013074,1,,1,-3,-3,-3,13,15,20,4,20,15,20,,,19,male,,9,CDU/CSU,,6,4,,,,,,,,,,,,,,,1,symmetric,9,21,RAND,SM,113,-9,0,0,0,0,0.5,0.0,SM vs. RAND,negative,,,1,2,1_2,0,1,0,1,Value -3,1,,1.0,,0.0,symmetric,1.0,1.0,1.0,,,3,,1,1
141210_1516,7,15,4,0.15454866,0.21073312,-3,-10,-30,SM,SM,2,No,0,0.0,-2.0,-1.0,-1.0,-1.0,-1.0,-1.0,-1.0,-1,-1.0,-1.0,,0,33,,37.0,,0.0,1,-10,-10,0,0.0,,23,,2,2,2,10.038861,3,,1,-3,-3,-3,13,15,20,4,20,13,20,,,19,male,,5,AfD,,6,6,,,,,,,,,,,,,,,1,symmetric,9,21,RAND,SM,115,-9,0,0,0,0,0.5,0.0,SM vs. RAND,negative,,,1,2,1_2,0,1,0,1,Value -3,1,,1.0,,0.0,symmetric,1.0,1.0,1.0,,,3,,1,1
141210_1516,7,20,4,0.62711012,0.074986957,-3,-10,-30,SM,SM,2,No,0,0.0,-2.0,-1.0,-1.0,-1.0,-1.0,-1.0,-1.0,-1,-1.0,-1.0,,0,35,,38.0,,0.0,0,-10,-10,0,0.0,,22,,2,2,2,10.00942,2,,1,-3,-3,-3,13,15,20,4,15,13,15,,,22,male,,5,Bündnis 90 / Die Grünen,,6,4,,,,,,,,,,,,,,,1,symmetric,9,21,RAND,SM,120,-9,0,0,0,0,0.5,0.0,SM vs. RAND,negative,,,1,2,1_2,0,1,0,1,Value -3,1,,1.0,,0.0,symmetric,1.0,1.0,1.0,,,3,,1,1
141210_1516,7,10,5,0.65295637,0.19915785,-3,-10,-30,SM,SM,2,No,0,0.0,-2.0,-1.0,-1.0,-1.0,-1.0,-1.0,-1.0,-1,-1.0,-1.0,,0,31,,36.0,,0.0,1,-10,-10,0,-3.0,,22,,2,2,2,10.571369,1,,1,-3,1,3,10,18,21,4,21,18,21,,,19,female,,6,CDU/CSU,,6,4,,,,,,,,,,,,,,,1,symmetric,9,21,RAND,SM,110,1,1,1,1,0,0.5,1.0,SM vs. RAND,negative,,,1,2,1_2,0,1,0,1,Value -3,1,,1.0,,0.0,symmetric,1.0,1.0,1.0,,,3,,1,1
141210_1516,7,18,5,0.6422435,0.72428226,1,-10,-30,SM,SM,2,Yes,2,0.0,-2.0,-1.0,-1.0,-1.0,-1.0,-1.0,-1.0,-1,-1.0,-1.0,,1,36,,37.0,,0.0,1,-10,-10,1,1.0,,24,,2,2,2,10.41322,2,,1,-3,1,3,10,18,21,4,21,10,21,,,37,female,,3,Bündnis 90 / Die Grünen,,4,6,,,,,,,,,,,,,,,1,symmetric,9,21,RAND,SM,118,1,1,1,1,0,0.5,1.0,SM vs. RAND,positive,,,1,2,1_2,0,1,1,0,Value 1,1,,1.0,,0.0,symmetric,1.0,1.0,1.0,,,1,,1,1
141210_1516,7,21,5,0.048198666,0.97985703,3,-10,-30,SM,SM,2,Yes,2,0.0,-2.0,-1.0,-1.0,-1.0,-1.0,-1.0,-1.0,-1,-1.0,-1.0,,1,34,,35.0,,0.0,1,-10,-10,1,3.0,,24,,2,2,2,10.046807,3,,1,-3,1,3,10,18,21,4,18,10,18,,,24,female,,6,Nichtwähler,,7,5,,,,,,,,,,,,,,,1,symmetric,9,21,RAND,SM,121,1,1,1,1,0,0.5,1.0,SM vs. RAND,positive,,,0,2,1_2,0,1,1,0,Value 3,1,,1.0,,0.0,symmetric,1.0,1.0,1.0,,,3,,1,1
141210_1516,7,11,6,0.40793642,0.08158467,-3,-10,-30,SM,SM,2,No,0,0.0,-2.0,-1.0,-1.0,-1.0,-1.0,-1.0,-1.0,-1,-1.0,-1.0,,0,36,,38.0,,0.0,0,-10,-10,0,0.0,,23,,2,2,2,10.632421,2,,1,-3,-3,-3,11,16,17,4,17,16,17,,,19,female,,5,Bündnis 90 / Die Grünen,,4,4,,,,,,,,,,,,,,,1,symmetric,9,21,RAND,SM,111,-9,0,0,0,0,0.5,0.0,SM vs. RAND,negative,,,1,2,1_2,0,1,0,1,Value -3,1,,1.0,,0.0,symmetric,1.0,1.0,1.0,,,3,,1,1
141210_1516,7,16,6,0.59275824,0.072568156,-3,-10,-30,SM,SM,2,No,0,0.0,-2.0,-1.0,-1.0,-1.0,-1.0,-1.0,-1.0,-1,-1.0,-1.0,,0,36,,34.0,,0.0,1,-10,-10,0,0.0,,23,,2,2,2,10.736814,1,,1,-3,-3,-3,11,16,17,4,17,11,17,,,23,male,,6,FDP,,7,6,,,,,,,,,,,,,,,1,symmetric,9,21,RAND,SM,116,-9,0,0,0,0,0.5,0.0,SM vs. RAND,negative,,,1,2,1_2,0,1,0,1,Value -3,1,,1.0,,0.0,symmetric,1.0,1.0,1.0,,,3,,1,1
141210_1516,7,17,6,0.33945876,0.092744119,-3,-10,-30,SM,SM,2,No,0,0.0,-2.0,-1.0,-1.0,-1.0,-1.0,-1.0,-1.0,-1,-1.0,-1.0,,0,36,,34.0,,0.0,1,-10,-10,0,0.0,,23,,2,2,2,10.633609,3,,1,-3,-3,-3,11,16,17,4,16,11,16,,,18,male,,8,CDU/CSU,,3,3,,,,,,,,,,,,,,,1,symmetric,9,21,RAND,SM,117,-9,0,0,0,0,0.5,0.0,SM vs. RAND,negative,,,1,2,1_2,0,1,0,1,Value -3,1,,1.0,,0.0,symmetric,1.0,1.0,1.0,,,3,,1,1
141210_1516,7,12,7,0.65752798,0.089067765,-3,-10,-30,SM,SM,2,No,0,0.0,-2.0,-1.0,-1.0,-1.0,-1.0,-1.0,-1.0,-1,-1.0,-1.0,,0,33,,37.0,,0.0,0,-10,-10,0,0.0,,22,,2,2,2,10.933733,1,,1,-3,1,-3,12,14,19,4,19,14,19,,,22,male,,6,SPD,,7,7,,,,,,,,,,,,,,,1,symmetric,9,21,RAND,SM,112,-5,0,0,0,0,0.5,0.0,SM vs. RAND,negative,,,1,2,1_2,0,1,0,1,Value -3,1,,1.0,,0.0,symmetric,1.0,1.0,1.0,,,3,,1,1
141210_1516,7,14,7,0.64830577,0.62394196,1,-10,-30,SM,RAND,1,Yes,1,0.0,-2.0,-1.0,-1.0,-1.0,-1.0,-1.0,-1.0,-1,-1.0,-1.0,,1,32,,32.0,,0.0,0,-10,-10,0,0.0,,21,,2,2,2,10.778622,2,,1,-3,1,-3,12,14,19,4,19,12,19,,,21,female,,3,Nichtwähler,,2,7,,,,,,,,,,,,,,,1,symmetric,9,21,RAND,SM,114,-5,0,0,0,0,0.5,0.5,SM vs. RAND,positive,,,0,2,1_2,0,1,1,0,Value 1,0,,0.0,,1.0,symmetric,0.0,0.0,0.0,,,1,,1,0
141210_1516,7,19,7,0.24600807,0.23916964,-3,-10,-30,SM,SM,2,No,0,0.0,-2.0,-1.0,-1.0,-1.0,-1.0,-1.0,-1.0,-1,-1.0,-1.0,,0,27,,37.0,,0.0,0,-10,-10,0,0.0,,23,,2,2,2,10.939757,3,,1,-3,1,-3,12,14,19,4,14,12,14,,,22,male,,9,CDU/CSU,,3,1,,,,,,,,,,,,,,,1,symmetric,9,21,RAND,SM,119,-5,0,0,0,0,0.5,0.0,SM vs. RAND,negative,,,1,2,1_2,0,1,0,1,Value -3,1,,1.0,,0.0,symmetric,1.0,1.0,1.0,,,3,,1,1
141210_1516,8,2,1,0.084953167,0.30675998,-1,-10,-30,NSQ,AGV,1,-1,0,0.0,-2.0,-1.0,-1.0,-1.0,-1.0,-1.0,-1.0,-1,-1.0,-1.0,,0,35,0.0,,36.0,,0,-10,-10,0,0.0,,20,,2,1,2,0.16070382,3,,1,-1,1,1,2,4,9,4,9,4,9,,,26,male,,4,Die Linke,,2,6,,,,,,,,,,,,,,,1,symmetric,9,21,AGV,NSQ,102,1,1,1,1,0,0.5,1.0,AGV vs. NSQ,negative,,,1,2,1_1,0,1,0,1,Value -1,1,1.0,,0.0,,symmetric,1.0,1.0,1.0,,,1,,0,0
141210_1516,8,4,1,0.36229578,0.64934814,1,-10,-30,NSQ,NSQ,2,-1,0,0.0,-2.0,-1.0,-1.0,-1.0,-1.0,-1.0,-1.0,-1,-1.0,-1.0,,1,35,0.0,,38.0,,1,-10,-10,0,0.0,,24,,2,1,2,0.27005869,1,,1,-1,1,1,2,4,9,4,9,2,9,,,25,female,,8,Nichtwähler,,3,8,,,,,,,,,,,,,,,1,symmetric,9,21,AGV,NSQ,104,1,1,1,1,0,0.5,0.0,AGV vs. NSQ,positive,,,1,2,1_1,0,1,1,0,Value 1,0,0.0,,1.0,,symmetric,0.0,0.0,0.0,,,1,,0,0
141210_1516,8,9,1,0.29038343,0.54656118,1,-10,-30,NSQ,AGV,1,-1,0,0.0,-2.0,-1.0,-1.0,-1.0,-1.0,-1.0,-1.0,-1,-1.0,-1.0,,1,33,0.0,,33.0,,0,-10,-10,0,0.0,,23,,2,1,2,0.22676471,2,,1,-1,1,1,2,4,9,4,4,2,4,,,26,male,,10,AfD,,8,8,,,,,,,,,,,,,,,1,symmetric,9,21,AGV,NSQ,109,1,1,1,1,0,0.5,1.0,AGV vs. NSQ,positive,,,0,2,1_1,0,1,1,0,Value 1,1,1.0,,0.0,,symmetric,1.0,1.0,1.0,,,1,,0,1
141210_1516,8,3,2,0.9952991,0.92034173,3,3,5,AGV,AGV,1,-1,0,-0.125,-1.0,-1.0,1.0,-1.0,-1.0,-1.0,-1.0,-1,-1.0,-1.0,,1,29,38.0,,0.0,,0,-1,3,1,2.875,,22,,2,1,2,0.80786294,1,,1,3,-1,3,3,6,7,4,7,6,7,,,19,male,,6,FDP,,3,4,,,,,,,,,,,,,,,1,symmetric,9,21,AGV,NSQ,103,5,1,1,1,0,0.5,1.0,AGV vs. NSQ,positive,1.0,1.0,1,2,1_1,0,1,1,0,Value 3,1,1.0,,0.0,,symmetric,1.0,1.0,1.0,,,3,,0,1
141210_1516,8,6,2,0.26031592,0.44972321,-1,-1,5,AGV,AGV,1,-1,0,0.25,1.0,-1.0,-1.0,-1.0,-1.0,-1.0,-1.0,-1,-1.0,-1.0,,0,36,38.0,,0.0,,1,3,3,1,-0.75,,21,,2,1,2,0.70650262,3,,1,3,-1,3,3,6,7,4,7,3,7,,,21,male,,2,Die Linke,,3,6,,,,,,,,,,,,,,,1,symmetric,9,21,AGV,NSQ,106,5,1,1,1,0,0.5,1.0,AGV vs. NSQ,negative,1.0,1.0,1,2,1_1,0,1,0,1,Value -1,1,1.0,,0.0,,symmetric,1.0,1.0,1.0,,,1,,0,0
141210_1516,8,7,2,0.8023777,0.88346821,3,3,5,AGV,AGV,1,-1,0,-0.125,-1.0,-1.0,1.0,-1.0,-1.0,-1.0,-1.0,-1,-1.0,-1.0,,1,31,37.0,,0.0,,0,3,-1,1,2.875,,23,,2,1,2,0.83880532,2,,1,3,-1,3,3,6,7,4,6,3,6,,,23,female,,4,SPD,,8,7,,,,,,,,,,,,,,,1,symmetric,9,21,AGV,NSQ,107,5,1,1,1,0,0.5,1.0,AGV vs. NSQ,positive,1.0,1.0,1,2,1_1,0,1,1,0,Value 3,1,1.0,,0.0,,symmetric,1.0,1.0,1.0,,,3,,0,1
141210_1516,8,1,3,0.1835279,0.056636132,-3,3,7,AGV,NSQ,2,-1,0,-0.125,-1.0,1.0,-1.0,-1.0,-1.0,-1.0,-1.0,-1,-1.0,-1.0,,0,34,31.0,,0.0,,0,1,3,1,-3.125,,14,,2,1,2,0.85001844,3,,1,-3,1,3,1,5,8,4,8,5,8,,,64,male,,3,Die Linke,,5,5,,,,,,,,,,,,,,,1,symmetric,9,21,AGV,NSQ,101,1,1,1,1,0,0.5,0.0,AGV vs. NSQ,negative,0.0,0.0,0,2,1_1,0,1,0,1,Value -3,0,0.0,,1.0,,symmetric,0.0,0.0,0.0,,,3,,0,1
141210_1516,8,5,3,0.20349826,0.72138512,1,1,7,AGV,NSQ,2,-1,0,0.25,1.0,-1.0,-1.0,-1.0,-1.0,-1.0,-1.0,-1,-1.0,-1.0,,1,33,37.0,,0.0,,0,3,3,1,1.25,,18,,2,1,2,0.9737516,2,,1,-3,1,3,1,5,8,4,8,1,8,,,26,male,,2,Sonstige,,5,8,,,,,,,,,,,,,,,1,symmetric,9,21,AGV,NSQ,105,1,1,1,1,0,0.5,0.0,AGV vs. NSQ,positive,1.0,1.0,1,2,1_1,0,1,1,0,Value 1,0,0.0,,1.0,,symmetric,0.0,0.0,0.0,,,1,,0,0
141210_1516,8,8,3,0.60333812,0.94268584,3,3,7,AGV,AGV,1,-1,0,-0.125,-1.0,1.0,-1.0,-1.0,-1.0,-1.0,-1.0,-1,-1.0,-1.0,,1,34,37.0,,0.0,,0,3,1,1,2.875,,16,,2,1,2,0.87654757,1,,1,-3,1,3,1,5,8,4,5,1,5,,,23,female,,4,CDU/CSU,,8,4,,,,,,,,,,,,,,,1,symmetric,9,21,AGV,NSQ,108,1,1,1,1,0,0.5,1.0,AGV vs. NSQ,positive,1.0,1.0,0,2,1_1,0,1,1,0,Value 3,1,1.0,,0.0,,symmetric,1.0,1.0,1.0,,,3,,0,1
141210_1516,8,10,4,0.0077829421,0.55951703,1,-10,-30,NSQ,AGV,1,-1,0,0.0,-2.0,-1.0,-1.0,-1.0,-1.0,-1.0,-1.0,-1,-1.0,-1.0,,1,28,0.0,,36.0,,1,-10,-10,0,0.0,,19,,2,2,2,10.017522,3,,1,1,3,-1,10,13,16,4,16,13,16,,,19,female,,6,CDU/CSU,,6,4,,,,,,,,,,,,,,,1,symmetric,9,21,AGV,NSQ,110,3,1,1,1,0,0.5,1.0,AGV vs. NSQ,positive,,,1,2,1_2,0,1,1,0,Value 1,1,1.0,,0.0,,symmetric,1.0,1.0,1.0,,,1,,0,1
141210_1516,8,13,4,0.2195511,0.92861545,3,-10,-30,NSQ,NSQ,2,-1,0,0.0,-2.0,-1.0,-1.0,-1.0,-1.0,-1.0,-1.0,-1,-1.0,-1.0,,1,31,0.0,,35.0,,1,-10,-10,0,0.0,,19,,2,2,2,10.222383,1,,1,1,3,-1,10,13,16,4,16,10,16,,,19,male,,9,CDU/CSU,,6,4,,,,,,,,,,,,,,,1,symmetric,9,21,AGV,NSQ,113,3,1,1,1,0,0.5,0.0,AGV vs. NSQ,positive,,,1,2,1_2,0,1,1,0,Value 3,0,0.0,,1.0,,symmetric,0.0,0.0,0.0,,,3,,0,0
141210_1516,8,16,4,0.18405464,0.30084866,-1,-10,-30,NSQ,AGV,1,-1,0,0.0,-2.0,-1.0,-1.0,-1.0,-1.0,-1.0,-1.0,-1,-1.0,-1.0,,0,34,0.0,,37.0,,0,-10,-10,0,0.0,,16,,2,2,2,10.105206,2,,1,1,3,-1,10,13,16,4,13,10,13,,,23,male,,6,FDP,,7,6,,,,,,,,,,,,,,,1,symmetric,9,21,AGV,NSQ,116,3,1,1,1,0,0.5,1.0,AGV vs. NSQ,negative,,,1,2,1_2,0,1,0,1,Value -1,1,1.0,,0.0,,symmetric,1.0,1.0,1.0,,,1,,0,0
141210_1516,8,11,5,0.46996337,0.55347776,1,3,3,AGV,AGV,1,-1,0,-0.25,-1.0,-1.0,-1.0,-1.0,-1.0,1.0,-1.0,-1,-1.0,-1.0,,1,36,32.0,,0.0,,0,1,-1,1,0.75,,23,,2,2,2,10.445829,1,,1,1,1,-3,11,14,21,4,21,14,21,,,19,female,,5,Bündnis 90 / Die Grünen,,4,4,,,,,,,,,,,,,,,1,symmetric,9,21,AGV,NSQ,111,-1,0,0,1,0,0.5,0.0,AGV vs. NSQ,positive,0.0,1.0,1,2,1_2,0,1,1,0,Value 1,1,1.0,,0.0,,symmetric,1.0,1.0,1.0,,,1,,0,1
141210_1516,8,14,5,0.36797589,0.57102376,1,1,3,AGV,AGV,1,-1,0,0.125,-1.0,-1.0,1.0,-1.0,-1.0,-1.0,-1.0,-1,-1.0,-1.0,,1,34,35.0,,0.0,,0,3,-1,1,1.125,,17,,2,2,2,10.303537,2,,1,1,1,-3,11,14,21,4,21,11,21,,,21,female,,3,Nichtwähler,,2,7,,,,,,,,,,,,,,,1,symmetric,9,21,AGV,NSQ,114,-1,0,0,1,0,0.5,0.0,AGV vs. NSQ,positive,1.0,1.0,0,2,1_2,0,1,1,0,Value 1,1,1.0,,0.0,,symmetric,1.0,1.0,1.0,,,1,,0,1
141210_1516,8,21,5,0.2488932,0.24034378,-3,-1,3,AGV,NSQ,2,-1,0,0.125,-1.0,1.0,-1.0,-1.0,-1.0,-1.0,-1.0,-1,-1.0,-1.0,,0,33,30.0,,0.0,,0,3,1,1,-2.875,,-20,,2,2,2,10.485911,3,,1,1,1,-3,11,14,21,4,14,11,14,,,24,female,,6,Nichtwähler,,7,5,,,,,,,,,,,,,,,1,symmetric,9,21,AGV,NSQ,121,-1,0,0,1,0,0.5,0.0,AGV vs. NSQ,negative,0.0,1.0,0,2,1_2,0,1,0,1,Value -3,0,0.0,,1.0,,symmetric,0.0,0.0,0.0,,,3,,0,1
141210_1516,8,15,6,0.69919491,0.88976157,3,1,3,AGV,AGV,1,-1,0,0.0,-1.0,-1.0,-1.0,-1.0,1.0,-1.0,-1.0,-1,-1.0,-1.0,,1,36,35.0,,0.0,,1,1,1,1,3.0,,19,,2,2,2,10.684157,2,,1,3,1,1,15,18,20,4,20,18,20,,,19,male,,5,AfD,,6,6,,,,,,,,,,,,,,,1,symmetric,9,21,AGV,NSQ,115,5,1,1,1,0,0.5,1.0,AGV vs. NSQ,positive,0.0,1.0,1,2,1_2,0,1,1,0,Value 3,1,1.0,,0.0,,symmetric,1.0,1.0,1.0,,,3,,0,1
141210_1516,8,18,6,0.83188832,0.56251681,1,1,3,AGV,AGV,1,-1,0,0.0,-1.0,-1.0,-1.0,-1.0,1.0,-1.0,-1.0,-1,-1.0,-1.0,,1,36,35.0,,0.0,,0,1,1,1,1.0,,23,,2,2,2,10.686457,1,,1,3,1,1,15,18,20,4,20,15,20,,,37,female,,3,Bündnis 90 / Die Grünen,,4,6,,,,,,,,,,,,,,,1,symmetric,9,21,AGV,NSQ,118,5,1,1,1,0,0.5,1.0,AGV vs. NSQ,positive,1.0,1.0,1,2,1_2,0,1,1,0,Value 1,1,1.0,,0.0,,symmetric,1.0,1.0,1.0,,,1,,0,1
141210_1516,8,20,6,0.14815445,0.74760175,1,1,3,AGV,AGV,1,-1,0,0.0,-1.0,-1.0,-1.0,-1.0,1.0,-1.0,-1.0,-1,-1.0,-1.0,,1,34,34.0,,0.0,,0,1,1,1,1.0,,2,,2,2,2,10.498059,3,,1,3,1,1,15,18,20,4,18,15,18,,,22,male,,5,Bündnis 90 / Die Grünen,,6,4,,,,,,,,,,,,,,,1,symmetric,9,21,AGV,NSQ,120,5,1,1,1,0,0.5,1.0,AGV vs. NSQ,positive,1.0,1.0,1,2,1_2,0,1,1,0,Value 1,1,1.0,,0.0,,symmetric,1.0,1.0,1.0,,,1,,0,1
141210_1516,8,12,7,0.51882184,0.23446968,-3,-3,-7,AGV,NSQ,2,-1,0,-0.125,-1.0,-1.0,-1.0,-1.0,-1.0,-1.0,-1.0,-1,1.0,-1.0,,0,34,35.0,,0.0,,1,-3,-1,0,-0.125,,17,,2,2,2,10.842874,3,,1,-3,-3,-1,12,17,19,4,19,17,19,,,22,male,,6,SPD,,7,7,,,,,,,,,,,,,,,1,symmetric,9,21,AGV,NSQ,112,-7,0,0,0,0,0.5,0.0,AGV vs. NSQ,negative,1.0,1.0,1,2,1_2,0,1,0,1,Value -3,0,0.0,,1.0,,symmetric,0.0,0.0,0.0,,,3,,0,1
141210_1516,8,17,7,0.56818408,0.072068729,-3,-3,-7,AGV,AGV,1,-1,0,-0.125,-1.0,-1.0,-1.0,-1.0,-1.0,-1.0,-1.0,-1,1.0,-1.0,,0,36,34.0,,0.0,,1,-3,-1,0,-0.125,,20,,2,2,2,10.949052,2,,1,-3,-3,-1,12,17,19,4,19,12,19,,,18,male,,8,CDU/CSU,,3,3,,,,,,,,,,,,,,,1,symmetric,9,21,AGV,NSQ,117,-7,0,0,0,0,0.5,0.0,AGV vs. NSQ,negative,1.0,1.0,1,2,1_2,0,1,0,1,Value -3,1,1.0,,0.0,,symmetric,1.0,1.0,1.0,,,3,,0,0
141210_1516,8,19,7,0.69989914,0.25907362,-1,-1,-7,AGV,AGV,1,-1,0,0.25,-1.0,-1.0,-1.0,-1.0,-1.0,-1.0,-1.0,-1,-1.0,1.0,,0,35,30.0,,0.0,,1,-3,-3,0,0.25,,18,,2,2,2,10.992129,1,,1,-3,-3,-1,12,17,19,4,17,12,17,,,22,male,,9,CDU/CSU,,3,1,,,,,,,,,,,,,,,1,symmetric,9,21,AGV,NSQ,119,-7,0,0,0,0,0.5,0.0,AGV vs. NSQ,negative,1.0,1.0,1,2,1_2,0,1,0,1,Value -1,1,1.0,,0.0,,symmetric,1.0,1.0,1.0,,,1,,0,0
141210_1516,9,1,1,0.36835492,0.29645094,-1,-10,-30,SM,SM,2,No,0,0.0,-2.0,-1.0,-1.0,-1.0,-1.0,-1.0,-1.0,-1,-1.0,-1.0,,0,33,0.0,30.0,,,1,-10,-10,0,-1.0,,25,,2,1,2,0.085002586,1,,1,-1,1,3,1,2,4,4,4,2,4,,,64,male,,3,Die Linke,,5,5,,,,,,,,,,,,,,,1,symmetric,9,21,AGV,SM,101,3,1,1,1,0,0.5,1.0,AGV vs. SM,negative,,,0,2,1_1,0,1,0,1,Value -1,0,0.0,1.0,,,symmetric,0.0,0.0,0.0,,,1,,0,1
141210_1516,9,2,1,0.35538566,0.58409488,1,-10,-30,SM,AGV,1,Yes,2,0.0,-2.0,-1.0,-1.0,-1.0,-1.0,-1.0,-1.0,-1,-1.0,-1.0,,1,28,0.0,36.0,,,1,-10,-10,1,1.0,,23,,2,1,2,0.075823888,2,,1,-1,1,3,1,2,4,4,4,1,4,,,26,male,,4,Die Linke,,2,6,,,,,,,,,,,,,,,1,symmetric,9,21,AGV,SM,102,3,1,1,1,0,0.5,1.0,AGV vs. SM,positive,,,1,2,1_1,0,1,1,0,Value 1,1,1.0,0.0,,,symmetric,1.0,1.0,1.0,,,1,,0,1
141210_1516,9,4,1,0.17836197,0.96450806,3,-10,-30,SM,SM,2,Yes,2,0.0,-2.0,-1.0,-1.0,-1.0,-1.0,-1.0,-1.0,-1,-1.0,-1.0,,1,32,0.0,33.0,,,1,-10,-10,1,3.0,,23,,2,1,2,0.021904793,3,,1,-1,1,3,1,2,4,4,2,1,2,,,25,female,,8,Nichtwähler,,3,8,,,,,,,,,,,,,,,1,symmetric,9,21,AGV,SM,104,3,1,1,1,0,0.5,1.0,AGV vs. SM,positive,,,1,2,1_1,0,1,1,0,Value 3,0,0.0,1.0,,,symmetric,0.0,0.0,0.0,,,3,,0,0
141210_1516,9,3,2,0.3431665,0.48640752,-1,-3,-7,AGV,SM,2,-1,0,-0.125,-1.0,-1.0,-1.0,-1.0,-1.0,-1.0,-1.0,-1,1.0,-1.0,,0,31,35.0,0.0,,,1,-3,-1,0,-0.125,,20,,2,1,2,0.50482893,2,,1,-1,-3,-1,3,5,6,4,6,5,6,,,19,male,,6,FDP,,3,4,,,,,,,,,,,,,,,1,symmetric,9,21,AGV,SM,103,-5,0,0,0,0,0.5,0.0,AGV vs. SM,negative,0.0,1.0,1,2,1_1,0,1,0,1,Value -1,0,0.0,1.0,,,symmetric,0.0,0.0,0.0,,,1,,0,1
141210_1516,9,5,2,0.84733075,0.051110551,-3,-3,-7,AGV,AGV,1,-1,0,-0.125,-1.0,-1.0,-1.0,-1.0,-1.0,-1.0,-1.0,-1,1.0,-1.0,,0,35,34.0,0.0,,,1,-3,-1,0,-0.125,,21,,2,1,2,0.38511452,1,,1,-1,-3,-1,3,5,6,4,6,3,6,,,26,male,,2,Sonstige,,5,8,,,,,,,,,,,,,,,1,symmetric,9,21,AGV,SM,105,-5,0,0,0,0,0.5,0.0,AGV vs. SM,negative,1.0,1.0,1,2,1_1,0,1,0,1,Value -3,1,1.0,0.0,,,symmetric,1.0,1.0,1.0,,,3,,0,1
141210_1516,9,6,2,0.24179651,0.45117721,-1,-1,-7,AGV,SM,2,-1,0,0.25,-1.0,-1.0,-1.0,-1.0,-1.0,-1.0,-1.0,-1,-1.0,1.0,,0,34,38.0,0.0,,,0,-3,-3,0,0.25,,18,,2,1,2,0.61983997,3,,1,-1,-3,-1,3,5,6,4,5,3,5,,,21,male,,2,Die Linke,,3,6,,,,,,,,,,,,,,,1,symmetric,9,21,AGV,SM,106,-5,0,0,0,0,0.5,0.0,AGV vs. SM,negative,1.0,1.0,1,2,1_1,0,1,0,1,Value -1,0,0.0,1.0,,,symmetric,0.0,0.0,0.0,,,1,,0,1
141210_1516,9,7,3,0.55388016,0.48671985,-1,-1,5,AGV,AGV,1,-1,0,0.25,1.0,-1.0,-1.0,-1.0,-1.0,-1.0,-1.0,-1,-1.0,-1.0,,0,35,36.0,0.0,,,0,3,3,1,-0.75,,21,,2,1,2,0.72957641,3,,1,-1,3,3,7,8,9,4,9,8,9,,,23,female,,4,SPD,,8,7,,,,,,,,,,,,,,,1,symmetric,9,21,AGV,SM,107,5,1,1,1,0,0.5,1.0,AGV vs. SM,negative,1.0,1.0,1,2,1_1,0,1,0,1,Value -1,1,1.0,0.0,,,symmetric,1.0,1.0,1.0,,,1,,0,1
141210_1516,9,8,3,0.75617254,0.75922239,3,3,5,AGV,AGV,1,-1,0,-0.125,-1.0,-1.0,1.0,-1.0,-1.0,-1.0,-1.0,-1,-1.0,-1.0,,1,35,37.0,0.0,,,1,-1,3,1,2.875,,23,,2,1,2,0.65073323,1,,1,-1,3,3,7,8,9,4,9,7,9,,,23,female,,4,CDU/CSU,,8,4,,,,,,,,,,,,,,,1,symmetric,9,21,AGV,SM,108,5,1,1,1,0,0.5,1.0,AGV vs. SM,positive,1.0,1.0,0,2,1_1,0,1,1,0,Value 3,1,1.0,0.0,,,symmetric,1.0,1.0,1.0,,,3,,0,1
141210_1516,9,9,3,0.73388094,0.96701282,3,3,5,AGV,AGV,1,-1,0,-0.125,-1.0,-1.0,1.0,-1.0,-1.0,-1.0,-1.0,-1,-1.0,-1.0,,1,24,35.0,0.0,,,0,-1,3,1,2.875,,12,,2,1,2,0.92791021,2,,1,-1,3,3,7,8,9,4,8,7,8,,,26,male,,10,AfD,,8,8,,,,,,,,,,,,,,,1,symmetric,9,21,AGV,SM,109,5,1,1,1,0,0.5,1.0,AGV vs. SM,positive,1.0,1.0,0,2,1_1,0,1,1,0,Value 3,1,1.0,0.0,,,symmetric,1.0,1.0,1.0,,,3,,0,1
141210_1516,9,12,4,0.77144843,0.33733821,-1,-10,-30,SM,SM,2,No,0,0.0,-2.0,-1.0,-1.0,-1.0,-1.0,-1.0,-1.0,-1,-1.0,-1.0,,0,36,0.0,37.0,,,0,-10,-10,0,0.0,,24,,2,2,2,10.258474,1,,1,-1,-3,1,12,15,18,4,18,15,18,,,22,male,,6,SPD,,7,7,,,,,,,,,,,,,,,1,symmetric,9,21,AGV,SM,112,-3,0,0,0,0,0.5,0.0,AGV vs. SM,negative,,,1,2,1_2,0,1,0,1,Value -1,0,0.0,1.0,,,symmetric,0.0,0.0,0.0,,,1,,0,1
141210_1516,9,15,4,0.22739092,0.23637237,-3,-10,-30,SM,SM,2,No,0,0.0,-2.0,-1.0,-1.0,-1.0,-1.0,-1.0,-1.0,-1,-1.0,-1.0,,0,35,0.0,38.0,,,1,-10,-10,0,0.0,,21,,2,2,2,10.277143,2,,1,-1,-3,1,12,15,18,4,18,12,18,,,19,male,,5,AfD,,6,6,,,,,,,,,,,,,,,1,symmetric,9,21,AGV,SM,115,-3,0,0,0,0,0.5,0.0,AGV vs. SM,negative,,,1,2,1_2,0,1,0,1,Value -3,0,0.0,1.0,,,symmetric,0.0,0.0,0.0,,,3,,0,0
141210_1516,9,18,4,0.19527267,0.67289025,1,-10,-30,SM,AGV,1,Yes,1,0.0,-2.0,-1.0,-1.0,-1.0,-1.0,-1.0,-1.0,-1,-1.0,-1.0,,1,34,0.0,35.0,,,1,-10,-10,0,0.0,,23,,2,2,2,10.015012,3,,1,-1,-3,1,12,15,18,4,15,12,15,,,37,female,,3,Bündnis 90 / Die Grünen,,4,6,,,,,,,,,,,,,,,1,symmetric,9,21,AGV,SM,118,-3,0,0,0,0,0.5,0.0,AGV vs. SM,positive,,,1,2,1_2,0,1,1,0,Value 1,1,1.0,0.0,,,symmetric,1.0,1.0,1.0,,,1,,0,1
141210_1516,9,11,5,0.5389871,0.47627604,-1,-10,-30,SM,SM,2,No,0,0.0,-2.0,-1.0,-1.0,-1.0,-1.0,-1.0,-1.0,-1,-1.0,-1.0,,0,35,0.0,38.0,,,0,-10,-10,0,-1.0,,22,,2,2,2,10.591521,2,,1,-1,3,3,11,13,20,4,20,13,20,,,19,female,,5,Bündnis 90 / Die Grünen,,4,4,,,,,,,,,,,,,,,1,symmetric,9,21,AGV,SM,111,5,1,1,1,0,0.5,1.0,AGV vs. SM,negative,,,1,2,1_2,0,1,0,1,Value -1,0,0.0,1.0,,,symmetric,0.0,0.0,0.0,,,1,,0,1
141210_1516,9,13,5,0.85267532,0.88255465,3,-10,-30,SM,SM,2,Yes,2,0.0,-2.0,-1.0,-1.0,-1.0,-1.0,-1.0,-1.0,-1,-1.0,-1.0,,1,35,0.0,38.0,,,0,-10,-10,1,3.0,,24,,2,2,2,10.38676,1,,1,-1,3,3,11,13,20,4,20,11,20,,,19,male,,9,CDU/CSU,,6,4,,,,,,,,,,,,,,,1,symmetric,9,21,AGV,SM,113,5,1,1,1,0,0.5,1.0,AGV vs. SM,positive,,,1,2,1_2,0,1,1,0,Value 3,0,0.0,1.0,,,symmetric,0.0,0.0,0.0,,,3,,0,0
141210_1516,9,20,5,0.52856183,0.82690859,3,-10,-30,SM,SM,2,Yes,2,0.0,-2.0,-1.0,-1.0,-1.0,-1.0,-1.0,-1.0,-1,-1.0,-1.0,,1,26,0.0,38.0,,,1,-10,-10,1,3.0,,24,,2,2,2,10.294533,3,,1,-1,3,3,11,13,20,4,13,11,13,,,22,male,,5,Bündnis 90 / Die Grünen,,6,4,,,,,,,,,,,,,,,1,symmetric,9,21,AGV,SM,120,5,1,1,1,0,0.5,1.0,AGV vs. SM,positive,,,1,2,1_2,0,1,1,0,Value 3,0,0.0,1.0,,,symmetric,0.0,0.0,0.0,,,3,,0,0
141210_1516,9,14,6,0.22959138,0.40220487,-1,-10,-30,SM,SM,2,Yes,3,0.0,-2.0,-1.0,-1.0,-1.0,-1.0,-1.0,-1.0,-1,-1.0,-1.0,,0,33,0.0,36.0,,,0,-10,-10,1,-1.0,,18,,2,2,2,10.758969,2,,1,-1,3,3,14,16,21,4,21,16,21,,,21,female,,3,Nichtwähler,,2,7,,,,,,,,,,,,,,,1,symmetric,9,21,AGV,SM,114,5,1,1,1,0,0.5,1.0,AGV vs. SM,negative,,,0,2,1_2,0,1,0,1,Value -1,0,0.0,1.0,,,symmetric,0.0,0.0,0.0,,,1,,0,1
141210_1516,9,16,6,0.12834011,0.87415248,3,-10,-30,SM,AGV,1,Yes,3,0.0,-2.0,-1.0,-1.0,-1.0,-1.0,-1.0,-1.0,-1,-1.0,-1.0,,1,30,0.0,30.0,,,1,-10,-10,1,3.0,,24,,2,2,2,10.599288,3,,1,-1,3,3,14,16,21,4,21,14,21,,,23,male,,6,FDP,,7,6,,,,,,,,,,,,,,,1,symmetric,9,21,AGV,SM,116,5,1,1,1,0,0.5,1.0,AGV vs. SM,positive,,,1,2,1_2,0,1,1,0,Value 3,1,1.0,0.0,,,symmetric,1.0,1.0,1.0,,,3,,0,1
141210_1516,9,21,6,0.5768739,0.7778855,3,-10,-30,SM,SM,2,Yes,3,0.0,-2.0,-1.0,-1.0,-1.0,-1.0,-1.0,-1.0,-1,-1.0,-1.0,,1,35,0.0,37.0,,,1,-10,-10,1,3.0,,23,,2,2,2,10.742511,1,,1,-1,3,3,14,16,21,4,16,14,16,,,24,female,,6,Nichtwähler,,7,5,,,,,,,,,,,,,,,1,symmetric,9,21,AGV,SM,121,5,1,1,1,0,0.5,1.0,AGV vs. SM,positive,,,0,2,1_2,0,1,1,0,Value 3,0,0.0,1.0,,,symmetric,0.0,0.0,0.0,,,3,,0,0
141210_1516,9,10,7,0.50329518,0.32420892,-1,-10,-30,SM,AGV,1,No,0,0.0,-2.0,-1.0,-1.0,-1.0,-1.0,-1.0,-1.0,-1,-1.0,-1.0,,0,30,0.0,36.0,,,0,-10,-10,0,0.0,,21,,2,2,2,10.935295,2,,1,-1,-3,1,10,17,19,4,19,17,19,,,19,female,,6,CDU/CSU,,6,4,,,,,,,,,,,,,,,1,symmetric,9,21,AGV,SM,110,-3,0,0,0,0,0.5,0.0,AGV vs. SM,negative,,,1,2,1_2,0,1,0,1,Value -1,1,1.0,0.0,,,symmetric,1.0,1.0,1.0,,,1,,0,1
141210_1516,9,17,7,0.021656426,0.21006554,-3,-10,-30,SM,AGV,1,No,0,0.0,-2.0,-1.0,-1.0,-1.0,-1.0,-1.0,-1.0,-1,-1.0,-1.0,,0,35,0.0,34.0,,,1,-10,-10,0,0.0,,24,,2,2,2,10.994072,3,,1,-1,-3,1,10,17,19,4,19,10,19,,,18,male,,8,CDU/CSU,,3,3,,,,,,,,,,,,,,,1,symmetric,9,21,AGV,SM,117,-3,0,0,0,0,0.5,0.0,AGV vs. SM,negative,,,1,2,1_2,0,1,0,1,Value -3,1,1.0,0.0,,,symmetric,1.0,1.0,1.0,,,3,,0,1
141210_1516,9,19,7,0.98430628,0.5716877,1,-10,-30,SM,SM,2,Yes,1,0.0,-2.0,-1.0,-1.0,-1.0,-1.0,-1.0,-1.0,-1,-1.0,-1.0,,1,33,0.0,37.0,,,0,-10,-10,0,0.0,,22,,2,2,2,10.97928,1,,1,-1,-3,1,10,17,19,4,17,10,17,,,22,male,,9,CDU/CSU,,3,1,,,,,,,,,,,,,,,1,symmetric,9,21,AGV,SM,119,-3,0,0,0,0,0.5,0.0,AGV vs. SM,positive,,,1,2,1_2,0,1,1,0,Value 1,0,0.0,1.0,,,symmetric,0.0,0.0,0.0,,,1,,0,1
141210_1516,10,2,1,0.033343971,0.10172337,-3,-10,-30,NSQ,NSQ,2,-1,0,0.0,-2.0,-1.0,-1.0,-1.0,-1.0,-1.0,-1.0,-1,-1.0,-1.0,,0,34,,,39.0,0.0,1,-10,-10,0,0.0,,24,,2,1,2,0.082348622,3,,1,-3,3,-3,2,3,4,4,4,3,4,,,26,male,,4,Die Linke,,2,6,,,,,,,,,,,,,,,1,symmetric,9,21,RAND,NSQ,102,-3,0,0,0,0,0.5,0.0,NSQ vs. RAND,negative,,,1,2,1_1,0,1,0,1,Value -3,1,,,1.0,0.0,symmetric,0.0,0.0,0.0,,,3,,1,1
141210_1516,10,3,1,0.64042348,0.9229548,3,-10,-30,NSQ,NSQ,2,-1,0,0.0,-2.0,-1.0,-1.0,-1.0,-1.0,-1.0,-1.0,-1,-1.0,-1.0,,1,26,,,37.0,0.0,1,-10,-10,0,0.0,,23,,2,1,2,0.035321023,2,,1,-3,3,-3,2,3,4,4,4,2,4,,,19,male,,6,FDP,,3,4,,,,,,,,,,,,,,,1,symmetric,9,21,RAND,NSQ,103,-3,0,0,0,0,0.5,0.0,NSQ vs. RAND,positive,,,1,2,1_1,0,1,1,0,Value 3,1,,,1.0,0.0,symmetric,0.0,0.0,0.0,,,3,,1,0
141210_1516,10,4,1,0.89303696,0.0072675035,-3,-10,-30,NSQ,NSQ,2,-1,0,0.0,-2.0,-1.0,-1.0,-1.0,-1.0,-1.0,-1.0,-1,-1.0,-1.0,,0,32,,,37.0,0.0,0,-10,-10,0,0.0,,24,,2,1,2,0.091957055,1,,1,-3,3,-3,2,3,4,4,3,2,3,,,25,female,,8,Nichtwähler,,3,8,,,,,,,,,,,,,,,1,symmetric,9,21,RAND,NSQ,104,-3,0,0,0,0,0.5,0.0,NSQ vs. RAND,negative,,,1,2,1_1,0,1,0,1,Value -3,1,,,1.0,0.0,symmetric,0.0,0.0,0.0,,,3,,1,1
141210_1516,10,1,2,0.038917828,0.75782681,3,-10,-30,NSQ,NSQ,2,-1,0,0.0,-2.0,-1.0,-1.0,-1.0,-1.0,-1.0,-1.0,-1,-1.0,-1.0,,1,29,,,39.0,0.0,0,-10,-10,0,0.0,,25,,2,1,2,0.14467295,3,,1,3,-3,-1,1,6,7,4,7,6,7,,,64,male,,3,Die Linke,,5,5,,,,,,,,,,,,,,,1,symmetric,9,21,RAND,NSQ,101,-1,0,0,0,0,0.5,0.0,NSQ vs. RAND,positive,,,0,2,1_1,0,1,1,0,Value 3,1,,,1.0,0.0,symmetric,0.0,0.0,0.0,,,3,,1,0
141210_1516,10,6,2,0.29405016,0.21157776,-3,-10,-30,NSQ,NSQ,2,-1,0,0.0,-2.0,-1.0,-1.0,-1.0,-1.0,-1.0,-1.0,-1,-1.0,-1.0,,0,36,,,36.0,0.0,0,-10,-10,0,0.0,,24,,2,1,2,0.36421904,2,,1,3,-3,-1,1,6,7,4,7,1,7,,,21,male,,2,Die Linke,,3,6,,,,,,,,,,,,,,,1,symmetric,9,21,RAND,NSQ,106,-1,0,0,0,0,0.5,0.0,NSQ vs. RAND,negative,,,1,2,1_1,0,1,0,1,Value -3,1,,,1.0,0.0,symmetric,0.0,0.0,0.0,,,3,,1,1
141210_1516,10,7,2,0.81385189,0.35556725,-1,-10,-30,NSQ,NSQ,2,-1,0,0.0,-2.0,-1.0,-1.0,-1.0,-1.0,-1.0,-1.0,-1,-1.0,-1.0,,0,30,,,38.0,0.0,0,-10,-10,0,0.0,,25,,2,1,2,0.19652757,1,,1,3,-3,-1,1,6,7,4,6,1,6,,,23,female,,4,SPD,,8,7,,,,,,,,,,,,,,,1,symmetric,9,21,RAND,NSQ,107,-1,0,0,0,0,0.5,0.0,NSQ vs. RAND,negative,,,1,2,1_1,0,1,0,1,Value -1,1,,,1.0,0.0,symmetric,0.0,0.0,0.0,,,1,,1,1
141210_1516,10,5,3,0.41213274,0.17368689,-3,-10,-30,RAND,NSQ,2,-1,0,0.0,-2.0,-1.0,-1.0,-1.0,-1.0,-1.0,-1.0,-1,-1.0,-1.0,,0,32,,,0.0,38.0,0,-10,-10,0,0.0,,24,,2,1,2,0.48056224,2,,1,-3,1,1,5,8,9,4,9,8,9,,,26,male,,2,Sonstige,,5,8,,,,,,,,,,,,,,,1,symmetric,9,21,RAND,NSQ,105,-1,0,0,1,0,0.5,0.0,NSQ vs. RAND,negative,,,1,2,1_1,0,1,0,1,Value -3,1,,,1.0,0.0,symmetric,0.0,0.0,0.0,,,3,,1,1
141210_1516,10,8,3,0.3989785,0.71206141,1,-10,-30,RAND,RAND,1,-1,0,0.0,-2.0,-1.0,-1.0,-1.0,-1.0,-1.0,-1.0,-1,-1.0,-1.0,,1,34,,,0.0,39.0,1,-10,-10,1,0.0,,23,,2,1,2,0.62149692,3,,1,-3,1,1,5,8,9,4,9,5,9,,,23,female,,4,CDU/CSU,,8,4,,,,,,,,,,,,,,,1,symmetric,9,21,RAND,NSQ,108,-1,0,0,1,0,0.5,0.5,NSQ vs. RAND,positive,,,0,2,1_1,0,1,1,0,Value 1,0,,,0.0,1.0,symmetric,0.0,0.0,0.0,,,1,,1,1
141210_1516,10,9,3,0.84941006,0.51815885,1,-10,-30,RAND,RAND,1,-1,0,0.0,-2.0,-1.0,-1.0,-1.0,-1.0,-1.0,-1.0,-1,-1.0,-1.0,,1,34,,,0.0,38.0,0,-10,-10,0,0.0,,23,,2,1,2,0.36454144,1,,1,-3,1,1,5,8,9,4,8,5,8,,,26,male,,10,AfD,,8,8,,,,,,,,,,,,,,,1,symmetric,9,21,RAND,NSQ,109,-1,0,0,1,0,0.5,0.5,NSQ vs. RAND,positive,,,0,2,1_1,0,1,1,0,Value 1,0,,,0.0,1.0,symmetric,0.0,0.0,0.0,,,1,,1,1
141210_1516,10,11,4,0.59653842,0.27203986,-1,-10,-30,RAND,RAND,1,-1,0,0.0,-2.0,-1.0,-1.0,-1.0,-1.0,-1.0,-1.0,-1,-1.0,-1.0,,0,34,,,0.0,38.0,0,-10,-10,0,0.0,,24,,2,2,2,10.321268,1,,1,-1,-3,1,11,16,17,4,17,16,17,,,19,female,,5,Bündnis 90 / Die Grünen,,4,4,,,,,,,,,,,,,,,1,symmetric,9,21,RAND,NSQ,111,-3,0,0,0,0,0.5,0.5,NSQ vs. RAND,negative,,,1,2,1_2,0,1,0,1,Value -1,0,,,0.0,1.0,symmetric,0.0,0.0,0.0,,,1,,1,0
141210_1516,10,16,4,0.0065208864,0.21061851,-3,-10,-30,RAND,NSQ,2,-1,0,0.0,-2.0,-1.0,-1.0,-1.0,-1.0,-1.0,-1.0,-1,-1.0,-1.0,,0,28,,,0.0,38.0,1,-10,-10,1,0.0,,24,,2,2,2,10.245445,3,,1,-1,-3,1,11,16,17,4,17,11,17,,,23,male,,6,FDP,,7,6,,,,,,,,,,,,,,,1,symmetric,9,21,RAND,NSQ,116,-3,0,0,0,0,0.5,0.0,NSQ vs. RAND,negative,,,1,2,1_2,0,1,0,1,Value -3,1,,,1.0,0.0,symmetric,0.0,0.0,0.0,,,3,,1,1
141210_1516,10,17,4,0.021649465,0.59086198,1,-10,-30,RAND,NSQ,2,-1,0,0.0,-2.0,-1.0,-1.0,-1.0,-1.0,-1.0,-1.0,-1,-1.0,-1.0,,1,36,,,0.0,36.0,1,-10,-10,1,0.0,,24,,2,2,2,10.039151,2,,1,-1,-3,1,11,16,17,4,16,11,16,,,18,male,,8,CDU/CSU,,3,3,,,,,,,,,,,,,,,1,symmetric,9,21,RAND,NSQ,117,-3,0,0,0,0,0.5,0.0,NSQ vs. RAND,positive,,,1,2,1_2,0,1,1,0,Value 1,1,,,1.0,0.0,symmetric,0.0,0.0,0.0,,,1,,1,0
141210_1516,10,14,5,0.48247296,0.57032496,1,-10,-30,NSQ,NSQ,2,-1,0,0.0,-2.0,-1.0,-1.0,-1.0,-1.0,-1.0,-1.0,-1,-1.0,-1.0,,1,31,,,37.0,0.0,1,-10,-10,0,0.0,,21,,2,2,2,10.409139,2,,1,1,3,-1,14,19,20,4,20,19,20,,,21,female,,3,Nichtwähler,,2,7,,,,,,,,,,,,,,,1,symmetric,9,21,RAND,NSQ,114,3,1,1,1,0,0.5,0.0,NSQ vs. RAND,positive,,,0,2,1_2,0,1,1,0,Value 1,1,,,1.0,0.0,symmetric,0.0,0.0,0.0,,,1,,1,0
141210_1516,10,19,5,0.65131569,0.88003159,3,-10,-30,NSQ,NSQ,2,-1,0,0.0,-2.0,-1.0,-1.0,-1.0,-1.0,-1.0,-1.0,-1,-1.0,-1.0,,1,35,,,33.0,0.0,1,-10,-10,0,0.0,,24,,2,2,2,10.331008,1,,1,1,3,-1,14,19,20,4,20,14,20,,,22,male,,9,CDU/CSU,,3,1,,,,,,,,,,,,,,,1,symmetric,9,21,RAND,NSQ,119,3,1,1,1,0,0.5,0.0,NSQ vs. RAND,positive,,,1,2,1_2,0,1,1,0,Value 3,1,,,1.0,0.0,symmetric,0.0,0.0,0.0,,,3,,1,0
141210_1516,10,20,5,0.070042878,0.35714704,-1,-10,-30,NSQ,NSQ,2,-1,0,0.0,-2.0,-1.0,-1.0,-1.0,-1.0,-1.0,-1.0,-1,-1.0,-1.0,,0,35,,,36.0,0.0,1,-10,-10,0,0.0,,24,,2,2,2,10.440406,3,,1,1,3,-1,14,19,20,4,19,14,19,,,22,male,,5,Bündnis 90 / Die Grünen,,6,4,,,,,,,,,,,,,,,1,symmetric,9,21,RAND,NSQ,120,3,1,1,1,0,0.5,0.0,NSQ vs. RAND,negative,,,1,2,1_2,0,1,0,1,Value -1,1,,,1.0,0.0,symmetric,0.0,0.0,0.0,,,1,,1,1
141210_1516,10,10,6,0.71494913,0.30886784,-1,-10,-30,RAND,RAND,1,-1,0,0.0,-2.0,-1.0,-1.0,-1.0,-1.0,-1.0,-1.0,-1,-1.0,-1.0,,0,35,,,0.0,38.0,1,-10,-10,1,-1.0,,21,,2,2,2,10.451587,1,,1,-1,-1,-3,10,13,15,4,15,13,15,,,19,female,,6,CDU/CSU,,6,4,,,,,,,,,,,,,,,1,symmetric,9,21,RAND,NSQ,110,-5,0,0,0,0,0.5,0.5,NSQ vs. RAND,negative,,,1,2,1_2,0,1,0,1,Value -1,0,,,0.0,1.0,symmetric,0.0,0.0,0.0,,,1,,1,0
141210_1516,10,13,6,0.14954963,0.44605497,-1,-10,-30,RAND,NSQ,2,-1,0,0.0,-2.0,-1.0,-1.0,-1.0,-1.0,-1.0,-1.0,-1,-1.0,-1.0,,0,32,,,0.0,37.0,1,-10,-10,1,-1.0,,23,,2,2,2,10.597464,3,,1,-1,-1,-3,10,13,15,4,15,10,15,,,19,male,,9,CDU/CSU,,6,4,,,,,,,,,,,,,,,1,symmetric,9,21,RAND,NSQ,113,-5,0,0,0,0,0.5,0.0,NSQ vs. RAND,negative,,,1,2,1_2,0,1,0,1,Value -1,1,,,1.0,0.0,symmetric,0.0,0.0,0.0,,,1,,1,1
141210_1516,10,15,6,0.6953699,0.18124378,-3,-10,-30,RAND,RAND,1,-1,0,0.0,-2.0,-1.0,-1.0,-1.0,-1.0,-1.0,-1.0,-1,-1.0,-1.0,,0,34,,,0.0,38.0,0,-10,-10,0,-3.0,,18,,2,2,2,10.555789,2,,1,-1,-1,-3,10,13,15,4,13,10,13,,,19,male,,5,AfD,,6,6,,,,,,,,,,,,,,,1,symmetric,9,21,RAND,NSQ,115,-5,0,0,0,0,0.5,0.5,NSQ vs. RAND,negative,,,1,2,1_2,0,1,0,1,Value -3,0,,,0.0,1.0,symmetric,0.0,0.0,0.0,,,3,,1,0
141210_1516,10,12,7,0.8446523,0.14202571,-3,-10,-30,RAND,RAND,1,-1,0,0.0,-2.0,-1.0,-1.0,-1.0,-1.0,-1.0,-1.0,-1,-1.0,-1.0,,0,35,,,0.0,36.0,1,-10,-10,1,-3.0,,24,,2,2,2,10.935347,1,,1,-3,-3,1,12,18,21,4,21,18,21,,,22,male,,6,SPD,,7,7,,,,,,,,,,,,,,,1,symmetric,9,21,RAND,NSQ,112,-5,0,0,0,0,0.5,0.5,NSQ vs. RAND,negative,,,1,2,1_2,0,1,0,1,Value -3,0,,,0.0,1.0,symmetric,0.0,0.0,0.0,,,3,,1,0
141210_1516,10,18,7,0.52751327,0.026071355,-3,-10,-30,RAND,NSQ,2,-1,0,0.0,-2.0,-1.0,-1.0,-1.0,-1.0,-1.0,-1.0,-1,-1.0,-1.0,,0,33,,,0.0,37.0,0,-10,-10,0,-3.0,,24,,2,2,2,10.809327,3,,1,-3,-3,1,12,18,21,4,21,12,21,,,37,female,,3,Bündnis 90 / Die Grünen,,4,6,,,,,,,,,,,,,,,1,symmetric,9,21,RAND,NSQ,118,-5,0,0,0,0,0.5,0.0,NSQ vs. RAND,negative,,,1,2,1_2,0,1,0,1,Value -3,1,,,1.0,0.0,symmetric,0.0,0.0,0.0,,,3,,1,1
141210_1516,10,21,7,0.74643964,0.61588591,1,-10,-30,RAND,RAND,1,-1,0,0.0,-2.0,-1.0,-1.0,-1.0,-1.0,-1.0,-1.0,-1,-1.0,-1.0,,1,34,,,0.0,38.0,1,-10,-10,1,1.0,,24,,2,2,2,10.631906,2,,1,-3,-3,1,12,18,21,4,18,12,18,,,24,female,,6,Nichtwähler,,7,5,,,,,,,,,,,,,,,1,symmetric,9,21,RAND,NSQ,121,-5,0,0,0,0,0.5,0.5,NSQ vs. RAND,positive,,,0,2,1_2,0,1,1,0,Value 1,0,,,0.0,1.0,symmetric,0.0,0.0,0.0,,,1,,1,1
141210_1516,11,1,1,0.31447548,0.90562522,3,1,3,AGV,RAND,1,-1,0,0.125,-1.0,-1.0,1.0,-1.0,-1.0,-1.0,-1.0,-1,-1.0,-1.0,,1,34,37.0,,,0.0,0,3,-1,1,3.125,,25,,2,1,2,0.27180573,3,,1,3,3,-1,1,2,6,4,6,2,6,,,64,male,,3,Die Linke,,5,5,,,,,,,,,,,,,,,1,symmetric,9,21,RAND,AGV,101,5,1,1,1,0,0.5,0.5,AGV vs. RAND,positive,0.0,1.0,0,2,1_1,0,1,1,0,Value 3,0,0.0,,,1.0,symmetric,0.0,0.0,0.0,,,3,,1,0
141210_1516,11,2,1,0.64888674,0.92286557,3,3,3,AGV,AGV,2,-1,0,-0.25,-1.0,-1.0,-1.0,-1.0,-1.0,1.0,-1.0,-1,-1.0,-1.0,,1,35,34.0,,,0.0,1,1,-1,1,2.75,,19,,2,1,2,0.34810722,1,,1,3,3,-1,1,2,6,4,6,1,6,,,26,male,,4,Die Linke,,2,6,,,,,,,,,,,,,,,1,symmetric,9,21,RAND,AGV,102,5,1,1,1,0,0.5,1.0,AGV vs. RAND,positive,1.0,1.0,1,2,1_1,0,1,1,0,Value 3,1,1.0,,,0.0,symmetric,1.0,1.0,1.0,,,3,,1,1
141210_1516,11,6,1,0.48393181,0.44178012,-1,-1,3,AGV,AGV,2,-1,0,0.125,-1.0,1.0,-1.0,-1.0,-1.0,-1.0,-1.0,-1,-1.0,-1.0,,0,36,35.0,,,0.0,1,1,3,1,-0.875,,20,,2,1,2,0.20821351,2,,1,3,3,-1,1,2,6,4,2,1,2,,,21,male,,2,Die Linke,,3,6,,,,,,,,,,,,,,,1,symmetric,9,21,RAND,AGV,106,5,1,1,1,0,0.5,1.0,AGV vs. RAND,negative,1.0,1.0,1,2,1_1,0,1,0,1,Value -1,1,1.0,,,0.0,symmetric,1.0,1.0,1.0,,,1,,1,1
141210_1516,11,3,2,0.99823213,0.98070753,3,3,-3,AGV,AGV,2,-1,0,0.0,-1.0,-1.0,-1.0,-1.0,-1.0,-1.0,-1.0,-1,-1.0,1.0,,1,33,38.0,,,0.0,1,-3,-3,0,0.0,,13,,2,1,2,0.37736231,1,,1,3,-1,-3,3,4,7,4,7,4,7,,,19,male,,6,FDP,,3,4,,,,,,,,,,,,,,,1,symmetric,9,21,RAND,AGV,103,-1,0,0,0,0,0.5,0.0,AGV vs. RAND,positive,1.0,1.0,1,2,1_1,0,1,1,0,Value 3,1,1.0,,,0.0,symmetric,1.0,1.0,1.0,,,3,,1,1
141210_1516,11,4,2,0.099677555,0.26433688,-1,-3,-3,AGV,AGV,2,-1,0,0.0,-1.0,-1.0,-1.0,1.0,-1.0,-1.0,-1.0,-1,-1.0,-1.0,,0,32,28.0,,,0.0,0,3,-3,0,0.0,,22,,2,1,2,0.5518828,3,,1,3,-1,-3,3,4,7,4,7,3,7,,,25,female,,8,Nichtwähler,,3,8,,,,,,,,,,,,,,,1,symmetric,9,21,RAND,AGV,104,-1,0,0,0,0,0.5,0.0,AGV vs. RAND,negative,0.0,1.0,1,2,1_1,0,1,0,1,Value -1,1,1.0,,,0.0,symmetric,1.0,1.0,1.0,,,1,,1,1
141210_1516,11,7,2,0.28643554,0.19509451,-3,-3,-3,AGV,AGV,2,-1,0,0.0,-1.0,-1.0,-1.0,1.0,-1.0,-1.0,-1.0,-1,-1.0,-1.0,,0,33,30.0,,,0.0,1,3,-3,0,0.0,,22,,2,1,2,0.40918022,2,,1,3,-1,-3,3,4,7,4,4,3,4,,,23,female,,4,SPD,,8,7,,,,,,,,,,,,,,,1,symmetric,9,21,RAND,AGV,107,-1,0,0,0,0,0.5,0.0,AGV vs. RAND,negative,1.0,1.0,1,2,1_1,0,1,0,1,Value -3,1,1.0,,,0.0,symmetric,1.0,1.0,1.0,,,3,,1,1
141210_1516,11,5,3,0.28710303,0.87430006,3,3,3,AGV,RAND,1,-1,0,0.0,-1.0,-1.0,-1.0,1.0,-1.0,-1.0,-1.0,-1,-1.0,-1.0,,1,31,37.0,,,0.0,0,-3,3,1,3.0,,22,,2,1,2,0.6379655,2,,1,3,-1,1,5,8,9,4,9,8,9,,,26,male,,2,Sonstige,,5,8,,,,,,,,,,,,,,,1,symmetric,9,21,RAND,AGV,105,3,1,1,1,0,0.5,0.5,AGV vs. RAND,positive,1.0,1.0,1,2,1_1,0,1,1,0,Value 3,0,0.0,,,1.0,symmetric,0.0,0.0,0.0,,,3,,1,0
141210_1516,11,8,3,0.1389388,0.34178308,-1,-3,3,AGV,AGV,2,-1,0,0.0,1.0,-1.0,-1.0,-1.0,-1.0,-1.0,-1.0,-1,-1.0,-1.0,,0,32,36.0,,,0.0,0,3,3,1,-1.0,,20,,2,1,2,0.97333473,3,,1,3,-1,1,5,8,9,4,9,5,9,,,23,female,,4,CDU/CSU,,8,4,,,,,,,,,,,,,,,1,symmetric,9,21,RAND,AGV,108,3,1,1,1,0,0.5,1.0,AGV vs. RAND,negative,0.0,1.0,0,2,1_1,0,1,0,1,Value -1,1,1.0,,,0.0,symmetric,1.0,1.0,1.0,,,1,,1,1
141210_1516,11,9,3,0.84302354,0.70999616,1,3,3,AGV,AGV,2,-1,0,0.0,-1.0,-1.0,-1.0,1.0,-1.0,-1.0,-1.0,-1,-1.0,-1.0,,1,33,28.0,,,0.0,1,3,-3,1,1.0,,6,,2,1,2,0.66695201,1,,1,3,-1,1,5,8,9,4,8,5,8,,,26,male,,10,AfD,,8,8,,,,,,,,,,,,,,,1,symmetric,9,21,RAND,AGV,109,3,1,1,1,0,0.5,1.0,AGV vs. RAND,positive,0.0,1.0,0,2,1_1,0,1,1,0,Value 1,1,1.0,,,0.0,symmetric,1.0,1.0,1.0,,,1,,1,1
141210_1516,11,11,4,0.7179907,0.66440874,1,1,-1,AGV,AGV,2,-1,0,0.125,-1.0,-1.0,-1.0,-1.0,-1.0,-1.0,1.0,-1,-1.0,-1.0,,1,36,34.0,,,0.0,0,1,-3,0,0.125,,23,,2,2,2,10.040554,1,,1,1,1,-3,11,18,19,4,19,18,19,,,19,female,,5,Bündnis 90 / Die Grünen,,4,4,,,,,,,,,,,,,,,1,symmetric,9,21,RAND,AGV,111,-1,0,0,1,0,0.5,0.0,AGV vs. RAND,positive,1.0,1.0,1,2,1_2,0,1,1,0,Value 1,1,1.0,,,0.0,symmetric,1.0,1.0,1.0,,,1,,1,1
141210_1516,11,18,4,0.71786481,0.65458506,1,1,-1,AGV,AGV,2,-1,0,0.125,-1.0,-1.0,-1.0,-1.0,-1.0,-1.0,1.0,-1,-1.0,-1.0,,1,35,35.0,,,0.0,0,1,-3,0,0.125,,22,,2,2,2,10.029864,2,,1,1,1,-3,11,18,19,4,19,11,19,,,37,female,,3,Bündnis 90 / Die Grünen,,4,6,,,,,,,,,,,,,,,1,symmetric,9,21,RAND,AGV,118,-1,0,0,1,0,0.5,0.0,AGV vs. RAND,positive,1.0,1.0,1,2,1_2,0,1,1,0,Value 1,1,1.0,,,0.0,symmetric,1.0,1.0,1.0,,,1,,1,1
141210_1516,11,19,4,0.61296439,0.099110313,-3,-3,-1,AGV,AGV,2,-1,0,-0.25,-1.0,-1.0,-1.0,-1.0,1.0,-1.0,-1.0,-1,-1.0,-1.0,,0,34,38.0,,,0.0,1,1,1,0,-0.25,,18,,2,2,2,10.107475,3,,1,1,1,-3,11,18,19,4,18,11,18,,,22,male,,9,CDU/CSU,,3,1,,,,,,,,,,,,,,,1,symmetric,9,21,RAND,AGV,119,-1,0,0,1,0,0.5,0.0,AGV vs. RAND,negative,1.0,1.0,1,2,1_2,0,1,0,1,Value -3,1,1.0,,,0.0,symmetric,1.0,1.0,1.0,,,3,,1,1
141210_1516,11,10,5,0.36108947,0.34039879,-1,-1,-1,AGV,AGV,2,-1,0,0.0,-1.0,-1.0,-1.0,-1.0,-1.0,1.0,-1.0,-1,-1.0,-1.0,,0,35,34.0,,,0.0,1,1,-1,0,0.0,,21,,2,2,2,10.203487,2,,1,-1,-3,-3,10,14,21,4,21,14,21,,,19,female,,6,CDU/CSU,,6,4,,,,,,,,,,,,,,,1,symmetric,9,21,RAND,AGV,110,-7,0,0,0,0,0.5,0.0,AGV vs. RAND,negative,1.0,1.0,1,2,1_2,0,1,0,1,Value -1,1,1.0,,,0.0,symmetric,1.0,1.0,1.0,,,1,,1,1
141210_1516,11,14,5,0.69665098,0.030334931,-3,1,-1,AGV,AGV,2,-1,0,0.0,-1.0,-1.0,-1.0,-1.0,-1.0,-1.0,-1.0,1,-1.0,-1.0,,0,29,38.0,,,0.0,1,-1,-1,0,0.0,,21,,2,2,2,10.322725,1,,1,-1,-3,-3,10,14,21,4,21,10,21,,,21,female,,3,Nichtwähler,,2,7,,,,,,,,,,,,,,,1,symmetric,9,21,RAND,AGV,114,-7,0,0,0,0,0.5,0.0,AGV vs. RAND,negative,0.0,0.0,0,2,1_2,0,1,0,1,Value -3,1,1.0,,,0.0,symmetric,1.0,1.0,1.0,,,3,,1,1
141210_1516,11,21,5,0.15339027,0.14992075,-3,-1,-1,AGV,RAND,1,-1,0,0.0,-1.0,-1.0,-1.0,-1.0,-1.0,1.0,-1.0,-1,-1.0,-1.0,,0,28,13.0,,,0.0,0,-1,1,0,0.0,,22,,2,2,2,10.322926,3,,1,-1,-3,-3,10,14,21,4,14,10,14,,,24,female,,6,Nichtwähler,,7,5,,,,,,,,,,,,,,,1,symmetric,9,21,RAND,AGV,121,-7,0,0,0,0,0.5,0.5,AGV vs. RAND,negative,0.0,1.0,0,2,1_2,0,1,0,1,Value -3,0,0.0,,,1.0,symmetric,0.0,0.0,0.0,,,3,,1,0
141210_1516,11,13,6,0.9535169,0.89477503,3,3,-1,AGV,AGV,2,-1,0,-0.125,-1.0,-1.0,-1.0,-1.0,-1.0,-1.0,-1.0,-1,1.0,-1.0,,1,37,35.0,,,0.0,1,-1,-3,0,-0.125,,13,,2,2,2,10.634897,1,,1,3,-1,-1,13,15,16,4,16,15,16,,,19,male,,9,CDU/CSU,,6,4,,,,,,,,,,,,,,,1,symmetric,9,21,RAND,AGV,113,1,1,1,0,0,0.5,1.0,AGV vs. RAND,positive,1.0,1.0,1,2,1_2,0,1,1,0,Value 3,1,1.0,,,0.0,symmetric,1.0,1.0,1.0,,,3,,1,1
141210_1516,11,15,6,0.75136936,0.41280368,-1,-1,-1,AGV,AGV,2,-1,0,0.25,-1.0,-1.0,-1.0,1.0,-1.0,-1.0,-1.0,-1,-1.0,-1.0,,0,36,35.0,,,0.0,0,3,-3,0,0.25,,18,,2,2,2,10.328221,2,,1,3,-1,-1,13,15,16,4,16,13,16,,,19,male,,5,AfD,,6,6,,,,,,,,,,,,,,,1,symmetric,9,21,RAND,AGV,115,1,1,1,0,0,0.5,1.0,AGV vs. RAND,negative,1.0,1.0,1,2,1_2,0,1,0,1,Value -1,1,1.0,,,0.0,symmetric,1.0,1.0,1.0,,,1,,1,1
141210_1516,11,16,6,0.59705091,0.38930094,-1,-3,-1,AGV,AGV,2,-1,0,-0.125,-1.0,-1.0,1.0,-1.0,-1.0,-1.0,-1.0,-1,-1.0,-1.0,,0,11,13.0,,,0.0,1,3,-1,0,-0.125,,22,,2,2,2,10.602089,3,,1,3,-1,-1,13,15,16,4,15,13,15,,,23,male,,6,FDP,,7,6,,,,,,,,,,,,,,,1,symmetric,9,21,RAND,AGV,116,1,1,1,0,0,0.5,1.0,AGV vs. RAND,negative,0.0,1.0,1,2,1_2,0,1,0,1,Value -1,1,1.0,,,0.0,symmetric,1.0,1.0,1.0,,,1,,1,1
141210_1516,11,12,7,0.72298086,0.85588175,3,-10,-30,RAND,RAND,1,-1,0,0.0,-2.0,-1.0,-1.0,-1.0,-1.0,-1.0,-1.0,-1,-1.0,-1.0,,1,37,0.0,,,39.0,0,-10,-10,0,0.0,,23,,2,2,2,10.992144,1,,1,3,-1,-1,12,17,20,4,20,17,20,,,22,male,,6,SPD,,7,7,,,,,,,,,,,,,,,1,symmetric,9,21,RAND,AGV,112,1,1,1,0,0,0.5,0.5,AGV vs. RAND,positive,,,1,2,1_2,0,1,1,0,Value 3,0,0.0,,,1.0,symmetric,0.0,0.0,0.0,,,3,,1,0
141210_1516,11,17,7,0.082628012,0.35349411,-1,-10,-30,RAND,AGV,2,-1,0,0.0,-2.0,-1.0,-1.0,-1.0,-1.0,-1.0,-1.0,-1,-1.0,-1.0,,0,34,0.0,,,37.0,0,-10,-10,0,0.0,,24,,2,2,2,10.991479,3,,1,3,-1,-1,12,17,20,4,20,12,20,,,18,male,,8,CDU/CSU,,3,3,,,,,,,,,,,,,,,1,symmetric,9,21,RAND,AGV,117,1,1,1,0,0,0.5,1.0,AGV vs. RAND,negative,,,1,2,1_2,0,1,0,1,Value -1,1,1.0,,,0.0,symmetric,1.0,1.0,1.0,,,1,,1,1
141210_1516,11,20,7,0.46652383,0.32257104,-1,-10,-30,RAND,AGV,2,-1,0,0.0,-2.0,-1.0,-1.0,-1.0,-1.0,-1.0,-1.0,-1,-1.0,-1.0,,0,25,0.0,,,26.0,0,-10,-10,0,0.0,,23,,2,2,2,10.813266,2,,1,3,-1,-1,12,17,20,4,17,12,17,,,22,male,,5,Bündnis 90 / Die Grünen,,6,4,,,,,,,,,,,,,,,1,symmetric,9,21,RAND,AGV,120,1,1,1,0,0,0.5,1.0,AGV vs. RAND,negative,,,1,2,1_2,0,1,0,1,Value -1,1,1.0,,,0.0,symmetric,1.0,1.0,1.0,,,1,,1,1
141210_1516,12,2,1,0.38093618,0.78875804,3,-10,-30,SM,SM,2,Yes,3,0.0,-2.0,-1.0,-1.0,-1.0,-1.0,-1.0,-1.0,-1,-1.0,-1.0,,1,36,,38.0,,,0,-10,-10,1,3.0,,23,,2,1,2,0.20734151,3,,1,3,3,3,2,7,9,4,9,7,9,,,26,male,,4,Die Linke,,2,6,,,,,,,,,,,,,,,1,symmetric,9,21,NSQ,SM,102,9,1,1,1,0,0.5,1.0,SM vs. NSQ,positive,,,1,2,1_1,0,1,1,0,Value 3,1,,1.0,0.0,,symmetric,1.0,1.0,1.0,,,3,,1,1
141210_1516,12,7,1,0.59461993,0.75784492,3,-10,-30,SM,SM,2,Yes,3,0.0,-2.0,-1.0,-1.0,-1.0,-1.0,-1.0,-1.0,-1,-1.0,-1.0,,1,34,,37.0,,,0,-10,-10,1,3.0,,23,,2,1,2,0.075719237,1,,1,3,3,3,2,7,9,4,9,2,9,,,23,female,,4,SPD,,8,7,,,,,,,,,,,,,,,1,symmetric,9,21,NSQ,SM,107,9,1,1,1,0,0.5,1.0,SM vs. NSQ,positive,,,1,2,1_1,0,1,1,0,Value 3,1,,1.0,0.0,,symmetric,1.0,1.0,1.0,,,3,,1,1
141210_1516,12,9,1,0.46185884,0.91679281,3,-10,-30,SM,SM,2,Yes,3,0.0,-2.0,-1.0,-1.0,-1.0,-1.0,-1.0,-1.0,-1,-1.0,-1.0,,1,31,,37.0,,,1,-10,-10,1,3.0,,19,,2,1,2,0.13587801,2,,1,3,3,3,2,7,9,4,7,2,7,,,26,male,,10,AfD,,8,8,,,,,,,,,,,,,,,1,symmetric,9,21,NSQ,SM,109,9,1,1,1,0,0.5,1.0,SM vs. NSQ,positive,,,0,2,1_1,0,1,1,0,Value 3,1,,1.0,0.0,,symmetric,1.0,1.0,1.0,,,3,,1,1
141210_1516,12,4,2,0.65617216,0.52129185,1,-10,-30,SM,SM,2,Yes,2,0.0,-2.0,-1.0,-1.0,-1.0,-1.0,-1.0,-1.0,-1,-1.0,-1.0,,1,36,,38.0,,,0,-10,-10,1,1.0,,24,,2,1,2,0.6413303,2,,1,1,3,-3,4,5,8,4,8,5,8,,,25,female,,8,Nichtwähler,,3,8,,,,,,,,,,,,,,,1,symmetric,9,21,NSQ,SM,104,1,1,1,1,0,0.5,1.0,SM vs. NSQ,positive,,,1,2,1_1,0,1,1,0,Value 1,1,,1.0,0.0,,symmetric,1.0,1.0,1.0,,,1,,1,1
141210_1516,12,5,2,0.085559562,0.9610827,3,-10,-30,SM,NSQ,1,Yes,2,0.0,-2.0,-1.0,-1.0,-1.0,-1.0,-1.0,-1.0,-1,-1.0,-1.0,,1,38,,36.0,,,0,-10,-10,1,3.0,,24,,2,1,2,0.59148782,3,,1,1,3,-3,4,5,8,4,8,4,8,,,26,male,,2,Sonstige,,5,8,,,,,,,,,,,,,,,1,symmetric,9,21,NSQ,SM,105,1,1,1,1,0,0.5,0.0,SM vs. NSQ,positive,,,1,2,1_1,0,1,1,0,Value 3,0,,0.0,1.0,,symmetric,0.0,0.0,0.0,,,3,,1,0
141210_1516,12,8,2,0.95798391,0.12968449,-3,-10,-30,SM,SM,2,No,0,0.0,-2.0,-1.0,-1.0,-1.0,-1.0,-1.0,-1.0,-1,-1.0,-1.0,,0,34,,37.0,,,0,-10,-10,0,-3.0,,24,,2,1,2,0.70165569,1,,1,1,3,-3,4,5,8,4,5,4,5,,,23,female,,4,CDU/CSU,,8,4,,,,,,,,,,,,,,,1,symmetric,9,21,NSQ,SM,108,1,1,1,1,0,0.5,1.0,SM vs. NSQ,negative,,,0,2,1_1,0,1,0,1,Value -3,1,,1.0,0.0,,symmetric,1.0,1.0,1.0,,,3,,1,0
141210_1516,12,1,3,0.21354382,0.11377047,-3,-10,-30,SM,NSQ,1,No,0,0.0,-2.0,-1.0,-1.0,-1.0,-1.0,-1.0,-1.0,-1,-1.0,-1.0,,0,36,,36.0,,,1,-10,-10,0,0.0,,24,,2,1,2,0.72131121,2,,1,-3,-1,-1,1,3,6,4,6,3,6,,,64,male,,3,Die Linke,,5,5,,,,,,,,,,,,,,,1,symmetric,9,21,NSQ,SM,101,-5,0,0,0,0,0.5,0.0,SM vs. NSQ,negative,,,0,2,1_1,0,1,0,1,Value -3,0,,0.0,1.0,,symmetric,0.0,0.0,0.0,,,3,,1,1
141210_1516,12,3,3,0.1403297,0.40674037,-1,-10,-30,SM,SM,2,No,0,0.0,-2.0,-1.0,-1.0,-1.0,-1.0,-1.0,-1.0,-1,-1.0,-1.0,,0,36,,35.0,,,1,-10,-10,0,0.0,,23,,2,1,2,0.78405416,3,,1,-3,-1,-1,1,3,6,4,6,1,6,,,19,male,,6,FDP,,3,4,,,,,,,,,,,,,,,1,symmetric,9,21,NSQ,SM,103,-5,0,0,0,0,0.5,0.0,SM vs. NSQ,negative,,,1,2,1_1,0,1,0,1,Value -1,1,,1.0,0.0,,symmetric,1.0,1.0,1.0,,,1,,1,0
141210_1516,12,6,3,0.8119083,0.2584317,-1,-10,-30,SM,SM,2,No,0,0.0,-2.0,-1.0,-1.0,-1.0,-1.0,-1.0,-1.0,-1,-1.0,-1.0,,0,37,,38.0,,,0,-10,-10,0,0.0,,25,,2,1,2,0.97858751,1,,1,-3,-1,-1,1,3,6,4,3,1,3,,,21,male,,2,Die Linke,,3,6,,,,,,,,,,,,,,,1,symmetric,9,21,NSQ,SM,106,-5,0,0,0,0,0.5,0.0,SM vs. NSQ,negative,,,1,2,1_1,0,1,0,1,Value -1,1,,1.0,0.0,,symmetric,1.0,1.0,1.0,,,1,,1,0
141210_1516,12,11,4,0.6532374,0.60654312,1,-10,-30,SM,SM,2,Yes,1,0.0,-2.0,-1.0,-1.0,-1.0,-1.0,-1.0,-1.0,-1,-1.0,-1.0,,1,34,,38.0,,,1,-10,-10,0,0.0,,22,,2,2,2,10.022495,1,,1,1,-3,-3,11,12,16,4,16,12,16,,,19,female,,5,Bündnis 90 / Die Grünen,,4,4,,,,,,,,,,,,,,,1,symmetric,9,21,NSQ,SM,111,-5,0,0,0,0,0.5,0.0,SM vs. NSQ,positive,,,1,2,1_2,0,1,1,0,Value 1,1,,1.0,0.0,,symmetric,1.0,1.0,1.0,,,1,,1,1
141210_1516,12,12,4,0.59930468,0.10179877,-3,-10,-30,SM,SM,2,No,0,0.0,-2.0,-1.0,-1.0,-1.0,-1.0,-1.0,-1.0,-1,-1.0,-1.0,,0,35,,38.0,,,1,-10,-10,0,0.0,,24,,2,2,2,10.100019,2,,1,1,-3,-3,11,12,16,4,16,11,16,,,22,male,,6,SPD,,7,7,,,,,,,,,,,,,,,1,symmetric,9,21,NSQ,SM,112,-5,0,0,0,0,0.5,0.0,SM vs. NSQ,negative,,,1,2,1_2,0,1,0,1,Value -3,1,,1.0,0.0,,symmetric,1.0,1.0,1.0,,,3,,1,0
141210_1516,12,16,4,0.51376557,0.16984686,-3,-10,-30,SM,SM,2,No,0,0.0,-2.0,-1.0,-1.0,-1.0,-1.0,-1.0,-1.0,-1,-1.0,-1.0,,0,30,,35.0,,,0,-10,-10,0,0.0,,21,,2,2,2,10.085288,3,,1,1,-3,-3,11,12,16,4,12,11,12,,,23,male,,6,FDP,,7,6,,,,,,,,,,,,,,,1,symmetric,9,21,NSQ,SM,116,-5,0,0,0,0,0.5,0.0,SM vs. NSQ,negative,,,1,2,1_2,0,1,0,1,Value -3,1,,1.0,0.0,,symmetric,1.0,1.0,1.0,,,3,,1,0
141210_1516,12,15,5,0.93185019,0.7805168,3,-10,-30,SM,SM,2,Yes,2,0.0,-2.0,-1.0,-1.0,-1.0,-1.0,-1.0,-1.0,-1,-1.0,-1.0,,1,36,,32.0,,,1,-10,-10,1,3.0,,24,,2,2,2,10.303183,1,,1,3,-1,1,15,18,21,4,21,18,21,,,19,male,,5,AfD,,6,6,,,,,,,,,,,,,,,1,symmetric,9,21,NSQ,SM,115,3,1,1,1,0,0.5,1.0,SM vs. NSQ,positive,,,1,2,1_2,0,1,1,0,Value 3,1,,1.0,0.0,,symmetric,1.0,1.0,1.0,,,3,,1,1
141210_1516,12,18,5,0.3942982,0.35486752,-1,-10,-30,SM,SM,2,No,0,0.0,-2.0,-1.0,-1.0,-1.0,-1.0,-1.0,-1.0,-1,-1.0,-1.0,,0,35,,35.0,,,1,-10,-10,0,-1.0,,24,,2,2,2,10.222443,2,,1,3,-1,1,15,18,21,4,21,15,21,,,37,female,,3,Bündnis 90 / Die Grünen,,4,6,,,,,,,,,,,,,,,1,symmetric,9,21,NSQ,SM,118,3,1,1,1,0,0.5,1.0,SM vs. NSQ,negative,,,1,2,1_2,0,1,0,1,Value -1,1,,1.0,0.0,,symmetric,1.0,1.0,1.0,,,1,,1,0
141210_1516,12,21,5,0.086760074,0.61629856,1,-10,-30,SM,SM,2,Yes,2,0.0,-2.0,-1.0,-1.0,-1.0,-1.0,-1.0,-1.0,-1,-1.0,-1.0,,1,31,,37.0,,,0,-10,-10,1,1.0,,25,,2,2,2,10.262418,3,,1,3,-1,1,15,18,21,4,18,15,18,,,24,female,,6,Nichtwähler,,7,5,,,,,,,,,,,,,,,1,symmetric,9,21,NSQ,SM,121,3,1,1,1,0,0.5,1.0,SM vs. NSQ,positive,,,0,2,1_2,0,1,1,0,Value 1,1,,1.0,0.0,,symmetric,1.0,1.0,1.0,,,1,,1,1
141210_1516,12,10,6,0.72685236,0.28286511,-1,-10,-30,SM,SM,2,No,0,0.0,-2.0,-1.0,-1.0,-1.0,-1.0,-1.0,-1.0,-1,-1.0,-1.0,,0,28,,39.0,,,1,-10,-10,0,-1.0,,23,,2,2,2,10.312304,2,,1,-1,1,3,10,14,19,4,19,14,19,,,19,female,,6,CDU/CSU,,6,4,,,,,,,,,,,,,,,1,symmetric,9,21,NSQ,SM,110,3,1,1,1,0,0.5,1.0,SM vs. NSQ,negative,,,1,2,1_2,0,1,0,1,Value -1,1,,1.0,0.0,,symmetric,1.0,1.0,1.0,,,1,,1,0
141210_1516,12,14,6,0.98123962,0.61799216,1,-10,-30,SM,SM,2,Yes,2,0.0,-2.0,-1.0,-1.0,-1.0,-1.0,-1.0,-1.0,-1,-1.0,-1.0,,1,34,,36.0,,,1,-10,-10,1,1.0,,23,,2,2,2,10.352309,1,,1,-1,1,3,10,14,19,4,19,10,19,,,21,female,,3,Nichtwähler,,2,7,,,,,,,,,,,,,,,1,symmetric,9,21,NSQ,SM,114,3,1,1,1,0,0.5,1.0,SM vs. NSQ,positive,,,0,2,1_2,0,1,1,0,Value 1,1,,1.0,0.0,,symmetric,1.0,1.0,1.0,,,1,,1,1
141210_1516,12,19,6,0.21096079,0.77740729,3,-10,-30,SM,SM,2,Yes,2,0.0,-2.0,-1.0,-1.0,-1.0,-1.0,-1.0,-1.0,-1,-1.0,-1.0,,1,37,,38.0,,,0,-10,-10,1,3.0,,22,,2,2,2,10.366615,3,,1,-1,1,3,10,14,19,4,14,10,14,,,22,male,,9,CDU/CSU,,3,1,,,,,,,,,,,,,,,1,symmetric,9,21,NSQ,SM,119,3,1,1,1,0,0.5,1.0,SM vs. NSQ,positive,,,1,2,1_2,0,1,1,0,Value 3,1,,1.0,0.0,,symmetric,1.0,1.0,1.0,,,3,,1,1
141210_1516,12,13,7,0.88381952,0.28507662,-1,-10,-30,SM,SM,2,No,0,0.0,-2.0,-1.0,-1.0,-1.0,-1.0,-1.0,-1.0,-1,-1.0,-1.0,,0,36,,37.0,,,1,-10,-10,0,-1.0,,24,,2,2,2,10.586041,2,,1,-1,1,1,13,17,20,4,20,17,20,,,19,male,,9,CDU/CSU,,6,4,,,,,,,,,,,,,,,1,symmetric,9,21,NSQ,SM,113,1,1,1,1,0,0.5,1.0,SM vs. NSQ,negative,,,1,2,1_2,0,1,0,1,Value -1,1,,1.0,0.0,,symmetric,1.0,1.0,1.0,,,1,,1,0
141210_1516,12,17,7,0.99958795,0.56708342,1,-10,-30,SM,SM,2,Yes,2,0.0,-2.0,-1.0,-1.0,-1.0,-1.0,-1.0,-1.0,-1,-1.0,-1.0,,1,36,,32.0,,,1,-10,-10,1,1.0,,20,,2,2,2,10.448238,1,,1,-1,1,1,13,17,20,4,20,13,20,,,18,male,,8,CDU/CSU,,3,3,,,,,,,,,,,,,,,1,symmetric,9,21,NSQ,SM,117,1,1,1,1,0,0.5,1.0,SM vs. NSQ,positive,,,1,2,1_2,0,1,1,0,Value 1,1,,1.0,0.0,,symmetric,1.0,1.0,1.0,,,1,,1,1
141210_1516,12,20,7,0.53040797,0.56688631,1,-10,-30,SM,SM,2,Yes,2,0.0,-2.0,-1.0,-1.0,-1.0,-1.0,-1.0,-1.0,-1,-1.0,-1.0,,1,33,,37.0,,,1,-10,-10,1,1.0,,23,,2,2,2,10.969992,3,,1,-1,1,1,13,17,20,4,17,13,17,,,22,male,,5,Bündnis 90 / Die Grünen,,6,4,,,,,,,,,,,,,,,1,symmetric,9,21,NSQ,SM,120,1,1,1,1,0,0.5,1.0,SM vs. NSQ,positive,,,1,2,1_2,0,1,1,0,Value 1,1,,1.0,0.0,,symmetric,1.0,1.0,1.0,,,1,,1,1
141210_1516,13,2,1,0.96127844,0.35984305,-1,-1,5,AGV,AGV,2,-1,0,0.25,1.0,-1.0,-1.0,-1.0,-1.0,-1.0,-1.0,-1,-1.0,-1.0,,0,22,36.0,0.0,,,1,3,3,1,-0.75,,18,,2,1,2,0.0069165938,1,102.0,1,-1,1,3,2,4,7,4,7,4,7,,,26,male,,4,Die Linke,,2,6,,,,,,,,,,,,,,,1,symmetric,9,21,SM,AGV,102,3,1,1,1,0,0.5,1.0,AGV vs. SM,negative,1.0,1.0,1,3,1_1,1,0,0,1,Value -1,1,1.0,0.0,,,symmetric,1.0,1.0,0.0,0.0,,1,,1,1
141210_1516,13,4,1,0.050059758,0.66198558,1,3,5,AGV,AGV,2,-1,0,-0.125,-1.0,-1.0,1.0,-1.0,-1.0,-1.0,-1.0,-1,-1.0,-1.0,,1,29,38.0,0.0,,,1,-1,3,1,0.875,,21,,2,1,2,0.37521046,3,106.0,1,-1,1,3,2,4,7,4,7,2,7,,,25,female,,8,Nichtwähler,,3,8,,,,,,,,,,,,,,,1,symmetric,9,21,SM,AGV,104,3,1,1,1,0,0.5,1.0,AGV vs. SM,positive,0.0,1.0,1,3,1_1,1,0,1,0,Value 1,1,1.0,0.0,,,symmetric,1.0,1.0,0.0,0.0,,1,,1,1
141210_1516,13,7,1,0.3032259,0.80131507,3,3,5,AGV,AGV,2,-1,0,-0.125,-1.0,-1.0,1.0,-1.0,-1.0,-1.0,-1.0,-1,-1.0,-1.0,,1,25,36.0,0.0,,,0,-1,3,1,2.875,,20,,2,1,2,0.23462452,2,85.0,1,-1,1,3,2,4,7,4,4,2,4,,,23,female,,4,SPD,,8,7,,,,,,,,,,,,,,,1,symmetric,9,21,SM,AGV,107,3,1,1,1,0,0.5,1.0,AGV vs. SM,positive,1.0,1.0,1,3,1_1,1,0,1,0,Value 3,1,1.0,0.0,,,symmetric,1.0,1.0,0.0,1.0,,3,,1,1
